id,acceloX,acceloY,acceloZ,userAcceloX,userAcceloY,userAcceloZ,gyroX,gyroY,gyroZ,lightSensor,locked
2020-11-14 22:18:31.510956,-2.109356164932251,2.882706880569458,9.466962814331055,0.21818579733371735,0.5370317697525024,0.20329228043556213,-0.7113243341445923,-0.41999292373657227,0.33963966369628906,8,0
2020-11-14 22:18:31.558048,-2.109356164932251,2.882706880569458,9.466962814331055,0.6763347387313843,0.7764909863471985,0.463520884513855,-0.7113243341445923,-0.41999292373657227,0.33963966369628906,8,0
2020-11-14 22:18:31.558393,-2.109356164932251,2.882706880569458,9.466962814331055,0.6763347387313843,0.7764909863471985,0.463520884513855,-1.693299651145935,-1.8696794509887695,0.4404458999633789,8,0
2020-11-14 22:18:31.558616,-3.510006904602051,1.8842942714691162,9.316123008728027,0.6763347387313843,0.7764909863471985,0.463520884513855,-1.693299651145935,-1.8696794509887695,0.4404458999633789,8,0
2020-11-14 22:18:31.669076,-3.510006904602051,1.8842942714691162,9.316123008728027,0.6763347387313843,0.7764909863471985,0.463520884513855,-1.693299651145935,-1.8696794509887695,0.4404458999633789,7,0
2020-11-14 22:18:31.710550,-3.510006904602051,1.8842942714691162,9.316123008728027,-0.03349068760871887,-0.2967992424964905,-0.6177105903625488,-1.693299651145935,-1.8696794509887695,0.4404458999633789,7,0
2020-11-14 22:18:31.712363,-3.510006904602051,1.8842942714691162,9.316123008728027,-0.03349068760871887,-0.2967992424964905,-0.6177105903625488,-0.6732697486877441,-1.3082828521728516,0.8528547286987305,7,0
2020-11-14 22:18:31.713717,-3.6177492141723633,2.8443984985351562,9.234718322753906,-0.03349068760871887,-0.2967992424964905,-0.6177105903625488,-0.6732697486877441,-1.3082828521728516,0.8528547286987305,7,0
2020-11-14 22:18:31.847939,-3.6177492141723633,2.8443984985351562,9.234718322753906,-0.03349068760871887,-0.2967992424964905,-0.6177105903625488,-0.6732697486877441,-1.3082828521728516,0.8528547286987305,5,0
2020-11-14 22:18:31.888940,-3.6177492141723633,2.8443984985351562,9.234718322753906,-0.41833579540252686,0.17601042985916138,0.23444640636444092,-0.6732697486877441,-1.3082828521728516,0.8528547286987305,5,0
2020-11-14 22:18:31.890227,-3.6177492141723633,2.8443984985351562,9.234718322753906,-0.41833579540252686,0.17601042985916138,0.23444640636444092,-1.5330424308776855,-1.1967556476593018,-0.4363584518432617,5,0
2020-11-14 22:18:31.890965,-4.642498970031738,3.2346651554107666,7.740690231323242,-0.41833579540252686,0.17601042985916138,0.23444640636444092,-1.5330424308776855,-1.1967556476593018,-0.4363584518432617,5,0
2020-11-14 22:18:31.909449,-4.642498970031738,3.2346651554107666,7.740690231323242,-0.41833579540252686,0.17601042985916138,0.23444640636444092,-1.5330424308776855,-1.1967556476593018,-0.4363584518432617,5,0
2020-11-14 22:18:32.075538,-4.642498970031738,3.2346651554107666,7.740690231323242,0.8479878306388855,-2.37190842628479,-0.4918723702430725,-1.5330424308776855,-1.1967556476593018,-0.4363584518432617,5,0
2020-11-14 22:18:32.079299,-4.642498970031738,3.2346651554107666,7.740690231323242,0.8479878306388855,-2.37190842628479,-0.4918723702430725,0.531312108039856,0.007493019104003906,0.09633922576904297,5,0
2020-11-14 22:18:32.082161,-1.1348862648010254,4.788549423217773,8.494887351989746,0.8479878306388855,-2.37190842628479,-0.4918723702430725,0.531312108039856,0.007493019104003906,0.09633922576904297,5,0
2020-11-14 22:18:32.090566,-1.1348862648010254,4.788549423217773,8.494887351989746,0.8479878306388855,-2.37190842628479,-0.4918723702430725,0.531312108039856,0.007493019104003906,0.09633922576904297,7,0
2020-11-14 22:18:32.253109,-1.1348862648010254,4.788549423217773,8.494887351989746,0.4924643039703369,-0.7341787815093994,0.22711603343486786,0.531312108039856,0.007493019104003906,0.09633922576904297,7,0
2020-11-14 22:18:32.258338,-1.1348862648010254,4.788549423217773,8.494887351989746,0.4924643039703369,-0.7341787815093994,0.22711603343486786,1.1364421844482422,-1.4503223896026611,2.215261459350586,7,0
2020-11-14 22:18:32.260926,0.6368771195411682,3.0191805362701416,10.929864883422852,0.4924643039703369,-0.7341787815093994,0.22711603343486786,1.1364421844482422,-1.4503223896026611,2.215261459350586,7,0
2020-11-14 22:18:32.270126,0.6368771195411682,3.0191805362701416,10.929864883422852,0.4924643039703369,-0.7341787815093994,0.22711603343486786,1.1364421844482422,-1.4503223896026611,2.215261459350586,9,0
2020-11-14 22:18:32.332195,0.6368771195411682,3.0191805362701416,10.929864883422852,0.4924643039703369,-0.7341787815093994,0.22711603343486786,1.1364421844482422,-1.4503223896026611,2.215261459350586,9,0
2020-11-14 22:18:32.440489,0.6368771195411682,3.0191805362701416,10.929864883422852,0.539500892162323,-0.703024685382843,-0.27745863795280457,1.1364421844482422,-1.4503223896026611,2.215261459350586,9,0
2020-11-14 22:18:32.447069,0.6368771195411682,3.0191805362701416,10.929864883422852,0.539500892162323,-0.703024685382843,-0.27745863795280457,-0.17011670768260956,-1.4959840774536133,0.4312419891357422,9,0
2020-11-14 22:18:32.450879,-0.026337023824453354,3.938581943511963,8.59305191040039,0.539500892162323,-0.703024685382843,-0.27745863795280457,-0.17011670768260956,-1.4959840774536133,0.4312419891357422,9,0
2020-11-14 22:18:32.613055,-0.026337023824453354,3.938581943511963,8.59305191040039,0.10395399481058121,0.09598708897829056,0.13243190944194794,-0.17011670768260956,-1.4959840774536133,0.4312419891357422,9,0
2020-11-14 22:18:32.616824,-0.026337023824453354,3.938581943511963,8.59305191040039,0.10395399481058121,0.09598708897829056,0.13243190944194794,0.01786351203918457,-0.8382573127746582,0.9175877571105957,9,0
2020-11-14 22:18:32.619641,0.4908263385295868,4.829252243041992,8.906702041625977,0.10395399481058121,0.09598708897829056,0.13243190944194794,0.01786351203918457,-0.8382573127746582,0.9175877571105957,9,0
2020-11-14 22:18:32.689770,0.4908263385295868,4.829252243041992,8.906702041625977,0.10395399481058121,0.09598708897829056,0.13243190944194794,0.01786351203918457,-0.8382573127746582,0.9175877571105957,10,0
2020-11-14 22:18:32.797719,0.4908263385295868,4.829252243041992,8.906702041625977,-0.2607325315475464,-0.19050870835781097,-0.30372586846351624,0.01786351203918457,-0.8382573127746582,0.9175877571105957,10,0
2020-11-14 22:18:32.804194,0.4908263385295868,4.829252243041992,8.906702041625977,-0.2607325315475464,-0.19050870835781097,-0.30372586846351624,-1.0181185007095337,-0.12264060974121094,0.3058309555053711,10,0
2020-11-14 22:18:32.807909,-0.6464542150497437,5.296135902404785,8.47094440460205,-0.2607325315475464,-0.19050870835781097,-0.30372586846351624,-1.0181185007095337,-0.12264060974121094,0.3058309555053711,10,0
2020-11-14 22:18:32.913447,-0.6464542150497437,5.296135902404785,8.47094440460205,-0.2607325315475464,-0.19050870835781097,-0.30372586846351624,-1.0181185007095337,-0.12264060974121094,0.3058309555053711,10,0
2020-11-14 22:18:32.971765,-0.6464542150497437,5.296135902404785,8.47094440460205,-0.07502952218055725,-0.5985667109489441,0.027363097295165062,-1.0181185007095337,-0.12264060974121094,0.3058309555053711,10,0
2020-11-14 22:18:32.975357,-0.6464542150497437,5.296135902404785,8.47094440460205,-0.07502952218055725,-0.5985667109489441,0.027363097295165062,0.40862810611724854,-1.1672906875610352,0.38138675689697266,10,0
2020-11-14 22:18:32.977344,1.6257126331329346,4.113364219665527,8.554743766784668,-0.07502952218055725,-0.5985667109489441,0.027363097295165062,0.40862810611724854,-1.1672906875610352,0.38138675689697266,10,0
2020-11-14 22:18:33.157428,1.6257126331329346,4.113364219665527,8.554743766784668,-0.28761062026023865,-1.8196862936019897,0.3908279240131378,0.40862810611724854,-1.1672906875610352,0.38138675689697266,10,0
2020-11-14 22:18:33.161068,1.6257126331329346,4.113364219665527,8.554743766784668,-0.28761062026023865,-1.8196862936019897,0.3908279240131378,0.8502516746520996,-1.2430200576782227,-2.9243078231811523,10,0
2020-11-14 22:18:33.163100,3.787742853164673,4.000833034515381,4.824463844299316,-0.28761062026023865,-1.8196862936019897,0.3908279240131378,0.8502516746520996,-1.2430200576782227,-2.9243078231811523,10,0
2020-11-14 22:18:33.315189,3.787742853164673,4.000833034515381,4.824463844299316,-0.28761062026023865,-1.8196862936019897,0.3908279240131378,0.8502516746520996,-1.2430200576782227,-2.9243078231811523,11,0
2020-11-14 22:18:33.330744,3.787742853164673,4.000833034515381,4.824463844299316,-0.8025699853897095,-1.9552984237670898,0.9015113115310669,0.8502516746520996,-1.2430200576782227,-2.9243078231811523,11,0
2020-11-14 22:18:33.364699,3.787742853164673,4.000833034515381,4.824463844299316,-0.8025699853897095,-1.9552984237670898,0.9015113115310669,-0.6718988418579102,-2.480976104736328,0.0034508705139160156,11,0
2020-11-14 22:18:33.366951,5.652883052825928,1.4557191133499146,6.38074254989624,-0.8025699853897095,-1.9552984237670898,0.9015113115310669,-0.6718988418579102,-2.480976104736328,0.0034508705139160156,11,0
2020-11-14 22:18:33.492614,5.652883052825928,1.4557191133499146,6.38074254989624,-0.8025699853897095,-1.9552984237670898,0.9015113115310669,-0.6718988418579102,-2.480976104736328,0.0034508705139160156,9,0
2020-11-14 22:18:33.526878,5.652883052825928,1.4557191133499146,6.38074254989624,-1.0408074855804443,-1.415293574333191,1.7335097789764404,-0.6718988418579102,-2.480976104736328,0.0034508705139160156,9,0
2020-11-14 22:18:33.528217,5.652883052825928,1.4557191133499146,6.38074254989624,-1.0408074855804443,-1.415293574333191,1.7335097789764404,-0.006970405578613281,-2.3165698051452637,2.624445915222168,9,0
2020-11-14 22:18:33.529222,8.645726203918457,-1.2641770839691162,7.118178844451904,-1.0408074855804443,-1.415293574333191,1.7335097789764404,-0.006970405578613281,-2.3165698051452637,2.624445915222168,9,0
2020-11-14 22:18:33.673354,8.645726203918457,-1.2641770839691162,7.118178844451904,-1.0408074855804443,-1.415293574333191,1.7335097789764404,-0.006970405578613281,-2.3165698051452637,2.624445915222168,5,0
2020-11-14 22:18:33.704475,8.645726203918457,-1.2641770839691162,7.118178844451904,-0.8331132531166077,-0.11781574785709381,1.6314952373504639,-0.006970405578613281,-2.3165698051452637,2.624445915222168,5,0
2020-11-14 22:18:33.706148,8.645726203918457,-1.2641770839691162,7.118178844451904,-0.8331132531166077,-0.11781574785709381,1.6314952373504639,1.391066551208496,-1.0706262588500977,-0.29902172088623047,5,0
2020-11-14 22:18:33.707187,10.288198471069336,-3.256213665008545,3.198751211166382,-0.8331132531166077,-0.11781574785709381,1.6314952373504639,1.391066551208496,-1.0706262588500977,-0.29902172088623047,5,0
2020-11-14 22:18:33.728115,10.288198471069336,-3.256213665008545,3.198751211166382,-0.8331132531166077,-0.11781574785709381,1.6314952373504639,1.391066551208496,-1.0706262588500977,-0.29902172088623047,5,0
2020-11-14 22:18:33.873960,10.288198471069336,-3.256213665008545,3.198751211166382,-0.5117982029914856,-0.6987485885620117,1.5142091512680054,1.391066551208496,-1.0706262588500977,-0.29902172088623047,5,0
2020-11-14 22:18:33.877564,10.288198471069336,-3.256213665008545,3.198751211166382,-0.5117982029914856,-0.6987485885620117,1.5142091512680054,-0.03232574462890625,-0.7738480567932129,0.4931526184082031,5,0
2020-11-14 22:18:33.880020,8.11180305480957,-5.470917701721191,3.282550811767578,-0.5117982029914856,-0.6987485885620117,1.5142091512680054,-0.03232574462890625,-0.7738480567932129,0.4931526184082031,5,0
2020-11-14 22:18:34.050395,8.11180305480957,-5.470917701721191,3.282550811767578,-0.5069112777709961,-0.412252813577652,1.1495225429534912,-0.03232574462890625,-0.7738480567932129,0.4931526184082031,5,0
2020-11-14 22:18:34.053204,8.11180305480957,-5.470917701721191,3.282550811767578,-0.5069112777709961,-0.412252813577652,1.1495225429534912,-0.3901791572570801,-0.7223224639892578,2.437422752380371,5,0
2020-11-14 22:18:34.056228,6.378347873687744,-7.673650741577148,3.8643596172332764,-0.5069112777709961,-0.412252813577652,1.1495225429534912,-0.3901791572570801,-0.7223224639892578,2.437422752380371,5,0
2020-11-14 22:18:34.088555,6.378347873687744,-7.673650741577148,3.8643596172332764,-0.5069112777709961,-0.412252813577652,1.1495225429534912,-0.3901791572570801,-0.7223224639892578,2.437422752380371,4,0
2020-11-14 22:18:34.235345,6.378347873687744,-7.673650741577148,3.8643596172332764,-0.24118487536907196,-0.6132274866104126,1.4164706468582153,-0.3901791572570801,-0.7223224639892578,2.437422752380371,4,0
2020-11-14 22:18:34.237986,6.378347873687744,-7.673650741577148,3.8643596172332764,-0.24118487536907196,-0.6132274866104126,1.4164706468582153,-1.5234246253967285,-0.9728984832763672,0.582566499710083,4,0
2020-11-14 22:18:34.241145,3.663240432739258,-9.28260326385498,1.0486923456192017,-0.24118487536907196,-0.6132274866104126,1.4164706468582153,-1.5234246253967285,-0.9728984832763672,0.582566499710083,4,0
2020-11-14 22:18:34.269444,3.663240432739258,-9.28260326385498,1.0486923456192017,-0.24118487536907196,-0.6132274866104126,1.4164706468582153,-1.5234246253967285,-0.9728984832763672,0.582566499710083,2,0
2020-11-14 22:18:34.409385,3.663240432739258,-9.28260326385498,1.0486923456192017,-0.48980703949928284,0.26886194944381714,1.2093873023986816,-1.5234246253967285,-0.9728984832763672,0.582566499710083,2,0
2020-11-14 22:18:34.412092,3.663240432739258,-9.28260326385498,1.0486923456192017,-0.48980703949928284,0.26886194944381714,1.2093873023986816,-0.045737504959106445,-1.5521659851074219,-0.19166605174541473,2,0
2020-11-14 22:18:34.413838,2.784541606903076,-10.939441680908203,-0.38787251710891724,-0.48980703949928284,0.26886194944381714,1.2093873023986816,-0.045737504959106445,-1.5521659851074219,-0.19166605174541473,2,0
2020-11-14 22:18:34.448465,2.784541606903076,-10.939441680908203,-0.38787251710891724,-0.48980703949928284,0.26886194944381714,1.2093873023986816,-0.045737504959106445,-1.5521659851074219,-0.19166605174541473,0,0
2020-11-14 22:18:34.520643,2.784541606903076,-10.939441680908203,-0.38787251710891724,-0.48980703949928284,0.26886194944381714,1.2093873023986816,-0.045737504959106445,-1.5521659851074219,-0.19166605174541473,0,0
2020-11-14 22:18:34.594355,2.784541606903076,-10.939441680908203,-0.38787251710891724,-0.4055076241493225,0.8430752754211426,-0.23836328089237213,-0.045737504959106445,-1.5521659851074219,-0.19166605174541473,0,0
2020-11-14 22:18:34.596634,2.6408851146698,-10.336084365844727,0.7829278707504272,-0.4055076241493225,0.8430752754211426,-0.23836328089237213,-0.045737504959106445,-1.5521659851074219,-0.19166605174541473,0,0
2020-11-14 22:18:34.597922,2.6408851146698,-10.336084365844727,0.7829278707504272,-0.4055076241493225,0.8430752754211426,-0.23836328089237213,0.9778149127960205,-0.7140398025512695,1.6886982917785645,0,0
2020-11-14 22:18:34.771262,2.6408851146698,-10.336084365844727,0.7829278707504272,-0.5960975885391235,-0.5753538012504578,-0.46438342332839966,0.9778149127960205,-0.7140398025512695,1.6886982917785645,0,0
2020-11-14 22:18:34.774461,2.6408851146698,-10.336084365844727,0.7829278707504272,-0.5960975885391235,-0.5753538012504578,-0.46438342332839966,0.2871990203857422,0.6538820266723633,2.7457327842712402,0,0
2020-11-14 22:18:34.776137,2.7055306434631348,-8.741497039794922,1.314456820487976,-0.5960975885391235,-0.5753538012504578,-0.46438342332839966,0.2871990203857422,0.6538820266723633,2.7457327842712402,0,0
2020-11-14 22:18:34.955671,2.7055306434631348,-8.741497039794922,1.314456820487976,0.43504297733306885,-0.6718705296516418,0.010258871130645275,0.2871990203857422,0.6538820266723633,2.7457327842712402,0,0
2020-11-14 22:18:34.957212,2.7055306434631348,-8.741497039794922,1.314456820487976,0.43504297733306885,-0.6718705296516418,0.010258871130645275,-1.391400694847107,-0.7021694183349609,0.4637413024902344,0,0
2020-11-14 22:18:34.962454,1.2617827653884888,-10.053560256958008,-0.8332076072692871,0.43504297733306885,-0.6718705296516418,0.010258871130645275,-1.391400694847107,-0.7021694183349609,0.4637413024902344,0,0
2020-11-14 22:18:35.240326,1.2617827653884888,-10.053560256958008,-0.8332076072692871,0.7520820498466492,-0.8313063383102417,-0.12413148581981659,-1.391400694847107,-0.7021694183349609,0.4637413024902344,0,0
2020-11-14 22:18:35.242555,1.2617827653884888,-10.053560256958008,-0.8332076072692871,0.7520820498466492,-0.8313063383102417,-0.12413148581981659,0.08981823921203613,0.1163625717163086,0.3758082985877991,0,0
2020-11-14 22:18:35.243925,2.569056987762451,-9.35203742980957,-0.23463892936706543,0.7520820498466492,-0.8313063383102417,-0.12413148581981659,0.08981823921203613,0.1163625717163086,0.3758082985877991,0,0
2020-11-14 22:18:35.334574,2.569056987762451,-9.35203742980957,-0.23463892936706543,0.15221233665943146,-0.392094224691391,-0.23408722877502441,0.08981823921203613,0.1163625717163086,0.3758082985877991,0,0
2020-11-14 22:18:35.340750,2.569056987762451,-9.35203742980957,-0.23463892936706543,0.15221233665943146,-0.392094224691391,-0.23408722877502441,-0.29309725761413574,0.025345802307128906,-0.027348175644874573,0,0
2020-11-14 22:18:35.343306,2.197944164276123,-10.008069038391113,0.9577099084854126,0.15221233665943146,-0.392094224691391,-0.23408722877502441,-0.29309725761413574,0.025345802307128906,-0.027348175644874573,0,0
2020-11-14 22:18:35.489270,2.197944164276123,-10.008069038391113,0.9577099084854126,0.11067350953817368,0.19372552633285522,0.21612045168876648,-0.29309725761413574,0.025345802307128906,-0.027348175644874573,0,0
2020-11-14 22:18:35.491959,2.197944164276123,-10.008069038391113,0.9577099084854126,0.11067350953817368,0.19372552633285522,0.21612045168876648,0.3765139579772949,-0.22655487060546875,2.8003149032592773,0,0
2020-11-14 22:18:35.493896,3.3687446117401123,-9.565128326416016,2.7127132415771484,0.11067350953817368,0.19372552633285522,0.21612045168876648,0.3765139579772949,-0.22655487060546875,2.8003149032592773,0,0
2020-11-14 22:18:35.529560,3.3687446117401123,-9.565128326416016,2.7127132415771484,0.11067350953817368,0.19372552633285522,0.21612045168876648,0.3765139579772949,-0.22655487060546875,2.8003149032592773,1,1
2020-11-14 22:18:35.610938,3.3687446117401123,-9.565128326416016,2.7127132415771484,0.11067350953817368,0.19372552633285522,0.21612045168876648,0.3765139579772949,-0.22655487060546875,2.8003149032592773,0,1
2020-11-14 22:18:35.629943,3.3687446117401123,-9.565128326416016,2.7127132415771484,0.11067350953817368,0.19372552633285522,0.21612045168876648,0.3765139579772949,-0.22655487060546875,2.8003149032592773,0,1
2020-11-14 22:18:35.670110,3.3687446117401123,-9.565128326416016,2.7127132415771484,0.5950896739959717,-1.411628246307373,-1.0147730112075806,0.3765139579772949,-0.22655487060546875,2.8003149032592773,0,1
2020-11-14 22:18:35.673507,3.3687446117401123,-9.565128326416016,2.7127132415771484,0.5950896739959717,-1.411628246307373,-1.0147730112075806,0.4565896987915039,-0.09859752655029297,2.6406006813049316,0,1
2020-11-14 22:18:35.675581,4.070267200469971,-9.21316909790039,2.8300328254699707,0.5950896739959717,-1.411628246307373,-1.0147730112075806,0.4565896987915039,-0.09859752655029297,2.6406006813049316,0,1
2020-11-14 22:18:35.849608,4.070267200469971,-9.21316909790039,2.8300328254699707,0.5865375399589539,-1.613824725151062,-1.4436004161834717,0.4565896987915039,-0.09859752655029297,2.6406006813049316,0,1
2020-11-14 22:18:35.854930,4.070267200469971,-9.21316909790039,2.8300328254699707,0.5865375399589539,-1.613824725151062,-1.4436004161834717,-3.0900306701660156,-1.8792424201965332,0.9884369969367981,0,1
2020-11-14 22:18:35.859962,2.636096477508545,-9.840469360351562,0.9696813225746155,0.5865375399589539,-1.613824725151062,-1.4436004161834717,-3.0900306701660156,-1.8792424201965332,0.9884369969367981,0,1
2020-11-14 22:18:36.030295,2.636096477508545,-9.840469360351562,0.9696813225746155,0.00316122779622674,-0.9852443933486938,0.46535348892211914,-3.0900306701660156,-1.8792424201965332,0.9884369969367981,0,1
2020-11-14 22:18:36.037543,2.636096477508545,-9.840469360351562,0.9696813225746155,0.00316122779622674,-0.9852443933486938,0.46535348892211914,-3.0900306701660156,-1.8792424201965332,0.9884369969367981,2,1
2020-11-14 22:18:36.039915,2.636096477508545,-9.840469360351562,0.9696813225746155,0.00316122779622674,-0.9852443933486938,0.46535348892211914,-5.191248893737793,-2.121725559234619,2.154508590698242,2,1
2020-11-14 22:18:36.041334,1.3695251941680908,-9.330489158630371,1.0774236917495728,0.00316122779622674,-0.9852443933486938,0.46535348892211914,-5.191248893737793,-2.121725559234619,2.154508590698242,2,1
2020-11-14 22:18:36.089089,1.3695251941680908,-9.330489158630371,1.0774236917495728,0.00316122779622674,-0.9852443933486938,0.46535348892211914,-5.191248893737793,-2.121725559234619,2.154508590698242,1,1
2020-11-14 22:18:36.217564,1.3695251941680908,-9.330489158630371,1.0774236917495728,-0.9681144952774048,1.587109088897705,2.053602933883667,-5.191248893737793,-2.121725559234619,2.154508590698242,1,1
2020-11-14 22:18:36.223341,1.3695251941680908,-9.330489158630371,1.0774236917495728,-0.9681144952774048,1.587109088897705,2.053602933883667,-1.510652780532837,-2.9736738204956055,2.845797538757324,1,1
2020-11-14 22:18:36.227537,3.3998701572418213,-11.377593994140625,1.6496553421020508,-0.9681144952774048,1.587109088897705,2.053602933883667,-1.510652780532837,-2.9736738204956055,2.845797538757324,1,1
2020-11-14 22:18:36.269159,3.3998701572418213,-11.377593994140625,1.6496553421020508,-0.9681144952774048,1.587109088897705,2.053602933883667,-1.510652780532837,-2.9736738204956055,2.845797538757324,0,1
2020-11-14 22:18:36.391872,3.3998701572418213,-11.377593994140625,1.6496553421020508,-0.9931599497795105,2.2193546295166016,0.5533180832862854,-1.510652780532837,-2.9736738204956055,2.845797538757324,0,1
2020-11-14 22:18:36.397737,3.3998701572418213,-11.377593994140625,1.6496553421020508,-0.9931599497795105,2.2193546295166016,0.5533180832862854,0.5805819034576416,0.35666561126708984,2.3156425952911377,0,1
2020-11-14 22:18:36.401102,3.754222869873047,-8.894730567932129,1.6017698049545288,-0.9931599497795105,2.2193546295166016,0.5533180832862854,0.5805819034576416,0.35666561126708984,2.3156425952911377,0,1
2020-11-14 22:18:36.509313,3.754222869873047,-8.894730567932129,1.6017698049545288,-0.9931599497795105,2.2193546295166016,0.5533180832862854,0.5805819034576416,0.35666561126708984,2.3156425952911377,3,1
2020-11-14 22:18:36.571653,3.754222869873047,-8.894730567932129,1.6017698049545288,-0.15627460181713104,2.0794665813446045,0.19840537011623383,0.5805819034576416,0.35666561126708984,2.3156425952911377,3,1
2020-11-14 22:18:36.577553,3.754222869873047,-8.894730567932129,1.6017698049545288,-0.15627460181713104,2.0794665813446045,0.19840537011623383,0.5805819034576416,0.35666561126708984,2.3156425952911377,3,1
2020-11-14 22:18:36.580611,3.754222869873047,-8.894730567932129,1.6017698049545288,-0.15627460181713104,2.0794665813446045,0.19840537011623383,0.6276681423187256,0.9782114028930664,0.21827763319015503,3,1
2020-11-14 22:18:36.582937,3.4333901405334473,-8.413481712341309,-0.0885881707072258,-0.15627460181713104,2.0794665813446045,0.19840537011623383,0.6276681423187256,0.9782114028930664,0.21827763319015503,3,1
2020-11-14 22:18:36.754051,3.4333901405334473,-8.413481712341309,-0.0885881707072258,0.33486104011535645,1.028778314590454,0.21367700397968292,0.6276681423187256,0.9782114028930664,0.21827763319015503,3,1
2020-11-14 22:18:36.763017,3.4333901405334473,-8.413481712341309,-0.0885881707072258,0.33486104011535645,1.028778314590454,0.21367700397968292,0.6276681423187256,0.9782114028930664,0.21827763319015503,1,1
2020-11-14 22:18:36.766743,3.4333901405334473,-8.413481712341309,-0.0885881707072258,0.33486104011535645,1.028778314590454,0.21367700397968292,3.26487135887146,0.11644744873046875,-1.6673130989074707,1,1
2020-11-14 22:18:36.769105,5.573871612548828,-9.37358570098877,-0.7853221297264099,0.33486104011535645,1.028778314590454,0.21367700397968292,3.26487135887146,0.11644744873046875,-1.6673130989074707,1,1
2020-11-14 22:18:36.932400,5.573871612548828,-9.37358570098877,-0.7853221297264099,-0.1636049747467041,-0.4727284610271454,-1.2401822805404663,3.26487135887146,0.11644744873046875,-1.6673130989074707,1,1
2020-11-14 22:18:36.944019,5.573871612548828,-9.37358570098877,-0.7853221297264099,-0.1636049747467041,-0.4727284610271454,-1.2401822805404663,1.0431184768676758,1.4071893692016602,-0.5978673100471497,1,1
2020-11-14 22:18:36.946510,3.873936653137207,-7.9537811279296875,0.12929083406925201,-0.1636049747467041,-0.4727284610271454,-1.2401822805404663,1.0431184768676758,1.4071893692016602,-0.5978673100471497,1,1
2020-11-14 22:18:36.991479,3.873936653137207,-7.9537811279296875,0.12929083406925201,-0.1636049747467041,-0.4727284610271454,-1.2401822805404663,1.0431184768676758,1.4071893692016602,-0.5978673100471497,0,1
2020-11-14 22:18:37.114466,3.873936653137207,-7.9537811279296875,0.12929083406925201,0.2713310718536377,-1.2546359300613403,-1.177873969078064,1.0431184768676758,1.4071893692016602,-0.5978673100471497,0,1
2020-11-14 22:18:37.121415,3.873936653137207,-7.9537811279296875,0.12929083406925201,0.2713310718536377,-1.2546359300613403,-1.177873969078064,-3.047852039337158,-1.3399171829223633,2.3484179973602295,0,1
2020-11-14 22:18:37.124279,1.922602653503418,-9.787795066833496,2.0351336002349854,0.2713310718536377,-1.2546359300613403,-1.177873969078064,-3.047852039337158,-1.3399171829223633,2.3484179973602295,0,1
2020-11-14 22:18:37.292504,1.922602653503418,-9.787795066833496,2.0351336002349854,-0.02860376611351967,-0.04145759344100952,0.11471682786941528,-3.047852039337158,-1.3399171829223633,2.3484179973602295,0,1
2020-11-14 22:18:37.298264,1.922602653503418,-9.787795066833496,2.0351336002349854,-0.02860376611351967,-0.04145759344100952,0.11471682786941528,-4.19937801361084,-1.4031329154968262,1.707596778869629,0,1
2020-11-14 22:18:37.301117,1.5730385780334473,-9.308940887451172,1.118126392364502,-0.02860376611351967,-0.04145759344100952,0.11471682786941528,-4.19937801361084,-1.4031329154968262,1.707596778869629,0,1
2020-11-14 22:18:37.472991,1.5730385780334473,-9.308940887451172,1.118126392364502,-0.16543757915496826,0.7141827344894409,1.2057222127914429,-4.19937801361084,-1.4031329154968262,1.707596778869629,0,1
2020-11-14 22:18:37.481812,1.5730385780334473,-9.308940887451172,1.118126392364502,-0.16543757915496826,0.7141827344894409,1.2057222127914429,-2.268202781677246,-2.2546825408935547,1.582876443862915,0,1
2020-11-14 22:18:37.485070,2.5594797134399414,-10.7838134765625,1.240234375,-0.16543757915496826,0.7141827344894409,1.2057222127914429,-2.268202781677246,-2.2546825408935547,1.582876443862915,0,1
2020-11-14 22:18:37.651390,2.5594797134399414,-10.7838134765625,1.240234375,0.672058641910553,1.0959734916687012,0.8666919469833374,-2.268202781677246,-2.2546825408935547,1.582876443862915,0,1
2020-11-14 22:18:37.657042,2.5594797134399414,-10.7838134765625,1.240234375,0.672058641910553,1.0959734916687012,0.8666919469833374,0.9303178787231445,0.8403396606445312,0.4809451103210449,0,1
2020-11-14 22:18:37.660020,3.4262073040008545,-8.643332481384277,0.45730647444725037,0.672058641910553,1.0959734916687012,0.8666919469833374,0.9303178787231445,0.8403396606445312,0.4809451103210449,0,1
2020-11-14 22:18:37.711417,3.4262073040008545,-8.643332481384277,0.45730647444725037,0.672058641910553,1.0959734916687012,0.8666919469833374,0.9303178787231445,0.8403396606445312,0.4809451103210449,4,1
2020-11-14 22:18:37.771430,3.4262073040008545,-8.643332481384277,0.45730647444725037,0.672058641910553,1.0959734916687012,0.8666919469833374,0.9303178787231445,0.8403396606445312,0.4809451103210449,6,1
2020-11-14 22:18:37.833095,3.4262073040008545,-8.643332481384277,0.45730647444725037,-0.07686211913824081,1.4728772640228271,0.18679891526699066,0.9303178787231445,0.8403396606445312,0.4809451103210449,6,1
2020-11-14 22:18:37.840301,3.4262073040008545,-8.643332481384277,0.45730647444725037,-0.07686211913824081,1.4728772640228271,0.18679891526699066,1.3801308870315552,1.2298259735107422,-0.4620511829853058,6,1
2020-11-14 22:18:37.844465,2.791724443435669,-8.468549728393555,-0.11731946468353271,-0.07686211913824081,1.4728772640228271,0.18679891526699066,1.3801308870315552,1.2298259735107422,-0.4620511829853058,6,1
2020-11-14 22:18:37.951981,2.791724443435669,-8.468549728393555,-0.11731946468353271,-0.07686211913824081,1.4728772640228271,0.18679891526699066,1.3801308870315552,1.2298259735107422,-0.4620511829853058,5,1
2020-11-14 22:18:38.012385,2.791724443435669,-8.468549728393555,-0.11731946468353271,0.1344972550868988,0.16623659431934357,-0.029447371140122414,1.3801308870315552,1.2298259735107422,-0.4620511829853058,5,1
2020-11-14 22:18:38.019378,2.791724443435669,-8.468549728393555,-0.11731946468353271,0.1344972550868988,0.16623659431934357,-0.029447371140122414,1.5936169624328613,0.4708709716796875,-1.0445733070373535,5,1
2020-11-14 22:18:38.025200,2.8731298446655273,-9.239506721496582,-0.5530774593353271,0.1344972550868988,0.16623659431934357,-0.029447371140122414,1.5936169624328613,0.4708709716796875,-1.0445733070373535,5,1
2020-11-14 22:18:38.195266,2.8731298446655273,-9.239506721496582,-0.5530774593353271,-0.06953173875808716,-0.12392439693212509,-0.5279133915901184,1.5936169624328613,0.4708709716796875,-1.0445733070373535,5,1
2020-11-14 22:18:38.203962,2.8731298446655273,-9.239506721496582,-0.5530774593353271,-0.06953173875808716,-0.12392439693212509,-0.5279133915901184,1.5936169624328613,0.4708709716796875,-1.0445733070373535,4,1
2020-11-14 22:18:38.211258,2.8731298446655273,-9.239506721496582,-0.5530774593353271,-0.06953173875808716,-0.12392439693212509,-0.5279133915901184,2.4526801109313965,-2.193859100341797,-1.760359287261963,4,1
2020-11-14 22:18:38.216377,4.015198707580566,-11.85405445098877,-1.1205205917358398,-0.06953173875808716,-0.12392439693212509,-0.5279133915901184,2.4526801109313965,-2.193859100341797,-1.760359287261963,4,1
2020-11-14 22:18:38.250206,4.015198707580566,-11.85405445098877,-1.1205205917358398,-0.06953173875808716,-0.12392439693212509,-0.5279133915901184,2.4526801109313965,-2.193859100341797,-1.760359287261963,3,1
2020-11-14 22:18:38.375261,4.015198707580566,-11.85405445098877,-1.1205205917358398,-0.390846848487854,-0.6706488132476807,-1.7050508260726929,2.4526801109313965,-2.193859100341797,-1.760359287261963,3,1
2020-11-14 22:18:38.384409,4.015198707580566,-11.85405445098877,-1.1205205917358398,-0.390846848487854,-0.6706488132476807,-1.7050508260726929,-0.09102654457092285,-2.7998046875,-0.7242480516433716,3,1
2020-11-14 22:18:38.387816,3.2418479919433594,-12.02165412902832,-0.5842030644416809,-0.390846848487854,-0.6706488132476807,-1.7050508260726929,-0.09102654457092285,-2.7998046875,-0.7242480516433716,3,1
2020-11-14 22:18:38.432186,3.2418479919433594,-12.02165412902832,-0.5842030644416809,-0.390846848487854,-0.6706488132476807,-1.7050508260726929,-0.09102654457092285,-2.7998046875,-0.7242480516433716,0,1
2020-11-14 22:18:38.556781,3.2418479919433594,-12.02165412902832,-0.5842030644416809,-0.5337892770767212,-0.019466442987322807,-1.321427345275879,-0.09102654457092285,-2.7998046875,-0.7242480516433716,0,1
2020-11-14 22:18:38.573369,3.2418479919433594,-12.02165412902832,-0.5842030644416809,-0.5337892770767212,-0.019466442987322807,-1.321427345275879,-5.723771095275879,-2.7808890342712402,0.9829524159431458,0,1
2020-11-14 22:18:38.578021,0.20351335406303406,-10.513260841369629,-0.13407939672470093,-0.5337892770767212,-0.019466442987322807,-1.321427345275879,-5.723771095275879,-2.7808890342712402,0.9829524159431458,0,1
2020-11-14 22:18:38.674701,0.20351335406303406,-10.513260841369629,-0.13407939672470093,-0.5337892770767212,-0.019466442987322807,-1.321427345275879,-5.723771095275879,-2.7808890342712402,0.9829524159431458,1,1
2020-11-14 22:18:38.730700,0.20351335406303406,-10.513260841369629,-0.13407939672470093,-0.7921853065490723,0.9188225865364075,0.5032271146774292,-5.723771095275879,-2.7808890342712402,0.9829524159431458,1,1
2020-11-14 22:18:38.734895,0.20351335406303406,-10.513260841369629,-0.13407939672470093,-0.7921853065490723,0.9188225865364075,0.5032271146774292,-7.084903717041016,-3.2233805656433105,1.9458591938018799,1,1
2020-11-14 22:18:38.738277,-0.45251792669296265,-10.278621673583984,0.39505535364151,-0.7921853065490723,0.9188225865364075,0.5032271146774292,-7.084903717041016,-3.2233805656433105,1.9458591938018799,1,1
2020-11-14 22:18:38.914256,-0.45251792669296265,-10.278621673583984,0.39505535364151,-1.1635913848876953,2.186978816986084,2.084146499633789,-7.084903717041016,-3.2233805656433105,1.9458591938018799,1,1
2020-11-14 22:18:38.919573,-0.45251792669296265,-10.278621673583984,0.39505535364151,-1.1635913848876953,2.186978816986084,2.084146499633789,-7.084903717041016,-3.2233805656433105,1.9458591938018799,2,1
2020-11-14 22:18:38.925338,-0.45251792669296265,-10.278621673583984,0.39505535364151,-1.1635913848876953,2.186978816986084,2.084146499633789,-1.315699577331543,-3.827744483947754,4.652304649353027,2,1
2020-11-14 22:18:38.929504,3.8906965255737305,-12.031230926513672,3.3232533931732178,-1.1635913848876953,2.186978816986084,2.084146499633789,-1.315699577331543,-3.827744483947754,4.652304649353027,2,1
2020-11-14 22:18:38.970130,3.8906965255737305,-12.031230926513672,3.3232533931732178,-1.1635913848876953,2.186978816986084,2.084146499633789,-1.315699577331543,-3.827744483947754,4.652304649353027,1,1
2020-11-14 22:18:39.091654,3.8906965255737305,-12.031230926513672,3.3232533931732178,-1.3407423496246338,3.17291522026062,0.9638195037841797,-1.315699577331543,-3.827744483947754,4.652304649353027,1,1
2020-11-14 22:18:39.100013,3.8906965255737305,-12.031230926513672,3.3232533931732178,-1.3407423496246338,3.17291522026062,0.9638195037841797,1.1816835403442383,-0.7822933197021484,3.4394187927246094,1,1
2020-11-14 22:18:39.103952,4.395888328552246,-10.000885963439941,2.513988494873047,-1.3407423496246338,3.17291522026062,0.9638195037841797,1.1816835403442383,-0.7822933197021484,3.4394187927246094,1,1
2020-11-14 22:18:39.151210,4.395888328552246,-10.000885963439941,2.513988494873047,-1.3407423496246338,3.17291522026062,0.9638195037841797,1.1816835403442383,-0.7822933197021484,3.4394187927246094,0,1
2020-11-14 22:18:39.272306,4.395888328552246,-10.000885963439941,2.513988494873047,-0.4757571220397949,3.2798166275024414,0.48612290620803833,1.1816835403442383,-0.7822933197021484,3.4394187927246094,0,1
2020-11-14 22:18:39.280416,4.395888328552246,-10.000885963439941,2.513988494873047,-0.4757571220397949,3.2798166275024414,0.48612290620803833,2.52083158493042,1.3755922317504883,1.0997095108032227,0,1
2020-11-14 22:18:39.283774,5.039948463439941,-8.068706512451172,0.3064671754837036,-0.4757571220397949,3.2798166275024414,0.48612290620803833,2.52083158493042,1.3755922317504883,1.0997095108032227,0,1
2020-11-14 22:18:39.814492,5.147690773010254,-9.955394744873047,-1.1588289737701416,-0.4757571220397949,3.2798166275024414,0.48612290620803833,2.52083158493042,1.3755922317504883,1.0997095108032227,0,1
2020-11-14 22:18:39.821310,5.552323341369629,-8.435029983520508,-2.013585090637207,-0.4757571220397949,3.2798166275024414,0.48612290620803833,2.52083158493042,1.3755922317504883,1.0997095108032227,0,1
2020-11-14 22:18:39.992855,5.552323341369629,-8.435029983520508,-2.013585090637207,-0.3041040003299713,-0.36827051639556885,-1.8052326440811157,2.52083158493042,1.3755922317504883,1.0997095108032227,0,1
2020-11-14 22:18:39.998347,5.552323341369629,-8.435029983520508,-2.013585090637207,-0.3041040003299713,-0.36827051639556885,-1.8052326440811157,-0.07416558265686035,-1.6850862503051758,0.46250396966934204,0,1
2020-11-14 22:18:40.001270,3.383110284805298,-10.83409309387207,-0.2537931203842163,-0.3041040003299713,-0.36827051639556885,-1.8052326440811157,-0.07416558265686035,-1.6850862503051758,0.46250396966934204,0,1
2020-11-14 22:18:40.110152,3.383110284805298,-10.83409309387207,-0.2537931203842163,-0.3041040003299713,-0.36827051639556885,-1.8052326440811157,-0.07416558265686035,-1.6850862503051758,0.46250396966934204,3,1
2020-11-14 22:18:40.173315,3.383110284805298,-10.83409309387207,-0.2537931203842163,-0.3291494846343994,0.1491323709487915,-0.5248590707778931,-0.07416558265686035,-1.6850862503051758,0.46250396966934204,3,1
2020-11-14 22:18:40.179382,3.383110284805298,-10.83409309387207,-0.2537931203842163,-0.3291494846343994,0.1491323709487915,-0.5248590707778931,-0.07416558265686035,-1.6850862503051758,0.46250396966934204,4,1
2020-11-14 22:18:40.183211,3.383110284805298,-10.83409309387207,-0.2537931203842163,-0.3291494846343994,0.1491323709487915,-0.5248590707778931,-3.476707935333252,-1.2715797424316406,2.499041795730591,4,1
2020-11-14 22:18:40.186389,1.9082369804382324,-9.33288288116455,1.0199611186981201,-0.3291494846343994,0.1491323709487915,-0.5248590707778931,-3.476707935333252,-1.2715797424316406,2.499041795730591,4,1
2020-11-14 22:18:40.355857,1.9082369804382324,-9.33288288116455,1.0199611186981201,0.1998598277568817,0.44967806339263916,1.125087857246399,-3.476707935333252,-1.2715797424316406,2.499041795730591,4,1
2020-11-14 22:18:40.372528,1.9082369804382324,-9.33288288116455,1.0199611186981201,0.1998598277568817,0.44967806339263916,1.125087857246399,-3.011223554611206,-1.608353614807129,1.5089572668075562,4,1
2020-11-14 22:18:40.375715,2.111750364303589,-9.883566856384277,0.3064671754837036,0.1998598277568817,0.44967806339263916,1.125087857246399,-3.011223554611206,-1.608353614807129,1.5089572668075562,4,1
2020-11-14 22:18:40.411428,2.111750364303589,-9.883566856384277,0.3064671754837036,0.1998598277568817,0.44967806339263916,1.125087857246399,-3.011223554611206,-1.608353614807129,1.5089572668075562,2,1
2020-11-14 22:18:40.533652,2.111750364303589,-9.883566856384277,0.3064671754837036,-0.14161382615566254,0.9719678163528442,2.2606866359710693,-3.011223554611206,-1.608353614807129,1.5089572668075562,2,1
2020-11-14 22:18:40.542905,2.111750364303589,-9.883566856384277,0.3064671754837036,-0.14161382615566254,0.9719678163528442,2.2606866359710693,2.8929922580718994,-1.370626449584961,2.603358030319214,2,1
2020-11-14 22:18:40.545708,5.219519138336182,-10.848459243774414,1.6400781869888306,-0.14161382615566254,0.9719678163528442,2.2606866359710693,2.8929922580718994,-1.370626449584961,2.603358030319214,2,1
2020-11-14 22:18:40.592686,5.219519138336182,-10.848459243774414,1.6400781869888306,-0.14161382615566254,0.9719678163528442,2.2606866359710693,2.8929922580718994,-1.370626449584961,2.603358030319214,0,1
2020-11-14 22:18:40.654659,5.219519138336182,-10.848459243774414,1.6400781869888306,-0.14161382615566254,0.9719678163528442,2.2606866359710693,2.8929922580718994,-1.370626449584961,2.603358030319214,18,1
2020-11-14 22:18:40.727604,5.219519138336182,-10.848459243774414,1.6400781869888306,-0.2234697788953781,1.2676266431808472,0.7225277423858643,2.8929922580718994,-1.370626449584961,2.603358030319214,18,1
2020-11-14 22:18:40.733279,5.219519138336182,-10.848459243774414,1.6400781869888306,-0.2234697788953781,1.2676266431808472,0.7225277423858643,3.886658191680908,1.2854499816894531,-0.9568477869033813,18,1
2020-11-14 22:18:40.735948,3.7685885429382324,-8.51404094696045,-1.3120626211166382,-0.2234697788953781,1.2676266431808472,0.7225277423858643,3.886658191680908,1.2854499816894531,-0.9568477869033813,18,1
2020-11-14 22:18:40.837359,3.7685885429382324,-8.51404094696045,-1.3120626211166382,-0.2234697788953781,1.2676266431808472,0.7225277423858643,3.886658191680908,1.2854499816894531,-0.9568477869033813,15,1
2020-11-14 22:18:40.893820,3.7685885429382324,-8.51404094696045,-1.3120626211166382,-0.012721268460154533,0.9976242184638977,0.14281663298606873,3.886658191680908,1.2854499816894531,-0.9568477869033813,15,1
2020-11-14 22:18:40.903793,3.7685885429382324,-8.51404094696045,-1.3120626211166382,-0.012721268460154533,0.9976242184638977,0.14281663298606873,3.886658191680908,1.2854499816894531,-0.9568477869033813,10,1
2020-11-14 22:18:40.908016,3.7685885429382324,-8.51404094696045,-1.3120626211166382,-0.012721268460154533,0.9976242184638977,0.14281663298606873,3.1199426651000977,0.8644495010375977,0.6826993823051453,10,1
2020-11-14 22:18:40.910650,2.602576732635498,-8.880365371704102,-0.28731298446655273,-0.012721268460154533,0.9976242184638977,0.14281663298606873,3.1199426651000977,0.8644495010375977,0.6826993823051453,10,1
2020-11-14 22:18:41.076186,2.602576732635498,-8.880365371704102,-0.28731298446655273,0.2059684842824936,-0.5136564373970032,-0.377029687166214,3.1199426651000977,0.8644495010375977,0.6826993823051453,10,1
2020-11-14 22:18:41.088039,2.602576732635498,-8.880365371704102,-0.28731298446655273,0.2059684842824936,-0.5136564373970032,-0.377029687166214,3.1199426651000977,0.8644495010375977,0.6826993823051453,7,1
2020-11-14 22:18:41.093017,2.602576732635498,-8.880365371704102,-0.28731298446655273,0.2059684842824936,-0.5136564373970032,-0.377029687166214,3.4881484508514404,-0.3758668899536133,0.0856102705001831,7,1
2020-11-14 22:18:41.095680,3.225088119506836,-10.166090965270996,-0.41660380363464355,0.2059684842824936,-0.5136564373970032,-0.377029687166214,3.4881484508514404,-0.3758668899536133,0.0856102705001831,7,1
2020-11-14 22:18:41.131813,3.225088119506836,-10.166090965270996,-0.41660380363464355,0.2059684842824936,-0.5136564373970032,-0.377029687166214,3.4881484508514404,-0.3758668899536133,0.0856102705001831,3,1
2020-11-14 22:18:41.256296,3.225088119506836,-10.166090965270996,-0.41660380363464355,0.28904616832733154,-0.9840226173400879,-0.6842949390411377,3.4881484508514404,-0.3758668899536133,0.0856102705001831,3,1
2020-11-14 22:18:41.264210,3.225088119506836,-10.166090965270996,-0.41660380363464355,0.28904616832733154,-0.9840226173400879,-0.6842949390411377,2.5293641090393066,-0.2191934585571289,1.598240613937378,3,1
2020-11-14 22:18:41.277375,3.2442424297332764,-9.99130916595459,1.192348837852478,0.28904616832733154,-0.9840226173400879,-0.6842949390411377,2.5293641090393066,-0.2191934585571289,1.598240613937378,3,1
2020-11-14 22:18:41.311379,3.2442424297332764,-9.99130916595459,1.192348837852478,0.28904616832733154,-0.9840226173400879,-0.6842949390411377,2.5293641090393066,-0.2191934585571289,1.598240613937378,2,1
2020-11-14 22:18:41.370544,3.2442424297332764,-9.99130916595459,1.192348837852478,0.28904616832733154,-0.9840226173400879,-0.6842949390411377,2.5293641090393066,-0.2191934585571289,1.598240613937378,1,1
2020-11-14 22:18:41.434022,3.2442424297332764,-9.99130916595459,1.192348837852478,-0.2637868821620941,-1.2699075937271118,-0.9738450050354004,2.5293641090393066,-0.2191934585571289,1.598240613937378,1,1
2020-11-14 22:18:41.441624,3.2442424297332764,-9.99130916595459,1.192348837852478,-0.2637868821620941,-1.2699075937271118,-0.9738450050354004,3.310532569885254,-0.868596076965332,2.470773696899414,1,1
2020-11-14 22:18:41.444655,5.588237285614014,-10.391152381896973,1.92020845413208,-0.2637868821620941,-1.2699075937271118,-0.9738450050354004,3.310532569885254,-0.868596076965332,2.470773696899414,1,1
2020-11-14 22:18:41.551341,5.588237285614014,-10.391152381896973,1.92020845413208,-0.2637868821620941,-1.2699075937271118,-0.9738450050354004,3.310532569885254,-0.868596076965332,2.470773696899414,0,1
2020-11-14 22:18:41.616191,5.588237285614014,-10.391152381896973,1.92020845413208,0.08562804013490677,2.1906440258026123,-3.9334871768951416,3.310532569885254,-0.868596076965332,2.470773696899414,0,1
2020-11-14 22:18:41.623920,5.588237285614014,-10.391152381896973,1.92020845413208,0.08562804013490677,2.1906440258026123,-3.9334871768951416,2.764434337615967,-5.517387390136719,2.0564119815826416,0,1
2020-11-14 22:18:41.627454,8.825297355651855,-13.19245433807373,1.3288224935531616,0.08562804013490677,2.1906440258026123,-3.9334871768951416,2.764434337615967,-5.517387390136719,2.0564119815826416,0,1
2020-11-14 22:18:41.796296,8.825297355651855,-13.19245433807373,1.3288224935531616,1.1381487846374512,2.8858087062835693,-2.915174722671509,2.764434337615967,-5.517387390136719,2.0564119815826416,0,1
2020-11-14 22:18:41.806795,8.825297355651855,-13.19245433807373,1.3288224935531616,1.1381487846374512,2.8858087062835693,-2.915174722671509,2.764434337615967,-5.517387390136719,2.0564119815826416,8,1
2020-11-14 22:18:41.811001,8.825297355651855,-13.19245433807373,1.3288224935531616,1.1381487846374512,2.8858087062835693,-2.915174722671509,-0.0036706924438476562,-4.263115406036377,0.6666107177734375,8,1
2020-11-14 22:18:41.813501,8.688823699951172,-6.19159460067749,4.776578426361084,1.1381487846374512,2.8858087062835693,-2.915174722671509,-0.0036706924438476562,-4.263115406036377,0.6666107177734375,8,1
2020-11-14 22:18:41.849655,8.688823699951172,-6.19159460067749,4.776578426361084,1.1381487846374512,2.8858087062835693,-2.915174722671509,-0.0036706924438476562,-4.263115406036377,0.6666107177734375,11,1
2020-11-14 22:18:41.976314,8.688823699951172,-6.19159460067749,4.776578426361084,1.7563444375991821,2.4740853309631348,-1.9078580141067505,-0.0036706924438476562,-4.263115406036377,0.6666107177734375,11,1
2020-11-14 22:18:41.993403,8.688823699951172,-6.19159460067749,4.776578426361084,1.7563444375991821,2.4740853309631348,-1.9078580141067505,-0.6595721244812012,-3.1265318393707275,-1.4687738418579102,11,1
2020-11-14 22:18:42.001734,5.138113975524902,-0.13168510794639587,5.851607799530029,1.7563444375991821,2.4740853309631348,-1.9078580141067505,-0.6595721244812012,-3.1265318393707275,-1.4687738418579102,11,1
2020-11-14 22:18:42.031092,5.138113975524902,-0.13168510794639587,5.851607799530029,1.7563444375991821,2.4740853309631348,-1.9078580141067505,-0.6595721244812012,-3.1265318393707275,-1.4687738418579102,28,1
2020-11-14 22:18:42.090342,5.138113975524902,-0.13168510794639587,5.851607799530029,1.7563444375991821,2.4740853309631348,-1.9078580141067505,-0.6595721244812012,-3.1265318393707275,-1.4687738418579102,36,1
2020-11-14 22:18:42.154659,5.138113975524902,-0.13168510794639587,5.851607799530029,0.5694332718849182,1.205929160118103,-0.5309677124023438,-0.6595721244812012,-3.1265318393707275,-1.4687738418579102,36,1
2020-11-14 22:18:42.159832,5.138113975524902,-0.13168510794639587,5.851607799530029,0.5694332718849182,1.205929160118103,-0.5309677124023438,-0.5287792682647705,-1.2444357872009277,-2.1682448387145996,36,1
2020-11-14 22:18:42.162714,1.6496553421020508,4.477293968200684,5.492466449737549,0.5694332718849182,1.205929160118103,-0.5309677124023438,-0.5287792682647705,-1.2444357872009277,-2.1682448387145996,36,1
2020-11-14 22:18:42.275028,1.6496553421020508,4.477293968200684,5.492466449737549,0.5694332718849182,1.205929160118103,-0.5309677124023438,-0.5287792682647705,-1.2444357872009277,-2.1682448387145996,48,1
2020-11-14 22:18:42.342937,1.6496553421020508,4.477293968200684,5.492466449737549,0.10700831562280655,0.8229167461395264,-0.20171137154102325,-0.5287792682647705,-1.2444357872009277,-2.1682448387145996,48,1
2020-11-14 22:18:42.345973,1.6496553421020508,4.477293968200684,5.492466449737549,0.10700831562280655,0.8229167461395264,-0.20171137154102325,-0.5287792682647705,-1.2444357872009277,-2.1682448387145996,47,1
2020-11-14 22:18:42.349988,1.6496553421020508,4.477293968200684,5.492466449737549,0.10700831562280655,0.8229167461395264,-0.20171137154102325,1.4839518070220947,0.48928403854370117,-0.8606624603271484,47,1
2020-11-14 22:18:42.353078,2.296109437942505,6.993676662445068,6.433416366577148,0.10700831562280655,0.8229167461395264,-0.20171137154102325,1.4839518070220947,0.48928403854370117,-0.8606624603271484,47,1
2020-11-14 22:18:42.364529,2.296109437942505,6.993676662445068,6.433416366577148,0.10700831562280655,0.8229167461395264,-0.20171137154102325,1.4839518070220947,0.48928403854370117,-0.8606624603271484,47,1
2020-11-14 22:18:42.519489,2.296109437942505,6.993676662445068,6.433416366577148,-0.5857129096984863,0.7685497403144836,0.13059931993484497,1.4839518070220947,0.48928403854370117,-0.8606624603271484,47,1
2020-11-14 22:18:42.525279,2.296109437942505,6.993676662445068,6.433416366577148,-0.5857129096984863,0.7685497403144836,0.13059931993484497,1.4839518070220947,0.48928403854370117,-0.8606624603271484,51,1
2020-11-14 22:18:42.532991,2.296109437942505,6.993676662445068,6.433416366577148,-0.5857129096984863,0.7685497403144836,0.13059931993484497,0.8643492460250854,1.293055534362793,-1.433074951171875,51,1
2020-11-14 22:18:42.537338,1.0893950462341309,7.719141960144043,5.9713215827941895,-0.5857129096984863,0.7685497403144836,0.13059931993484497,0.8643492460250854,1.293055534362793,-1.433074951171875,51,1
2020-11-14 22:18:42.691867,1.0893950462341309,7.719141960144043,5.9713215827941895,-0.3407559096813202,-0.6193361282348633,-0.2707391381263733,0.8643492460250854,1.293055534362793,-1.433074951171875,51,1
2020-11-14 22:18:42.695766,1.0893950462341309,7.719141960144043,5.9713215827941895,-0.3407559096813202,-0.6193361282348633,-0.2707391381263733,0.8643492460250854,1.293055534362793,-1.433074951171875,50,1
2020-11-14 22:18:42.701477,1.0893950462341309,7.719141960144043,5.9713215827941895,-0.3407559096813202,-0.6193361282348633,-0.2707391381263733,0.5970015525817871,1.6753449440002441,-1.7358455657958984,50,1
2020-11-14 22:18:42.734995,-2.138087511062622,5.564294815063477,8.624177932739258,-0.3407559096813202,-0.6193361282348633,-0.2707391381263733,0.5970015525817871,1.6753449440002441,-1.7358455657958984,50,1
2020-11-14 22:18:42.751518,-2.138087511062622,5.564294815063477,8.624177932739258,-0.3407559096813202,-0.6193361282348633,-0.2707391381263733,0.5970015525817871,1.6753449440002441,-1.7358455657958984,50,1
2020-11-14 22:18:42.878913,-2.138087511062622,5.564294815063477,8.624177932739258,-0.6461885571479797,-0.28336024284362793,-0.18094195425510406,0.5970015525817871,1.6753449440002441,-1.7358455657958984,50,1
2020-11-14 22:18:42.884621,-2.138087511062622,5.564294815063477,8.624177932739258,-0.6461885571479797,-0.28336024284362793,-0.18094195425510406,-2.5352535247802734,0.35683202743530273,2.3669281005859375,50,1
2020-11-14 22:18:42.887681,-1.7406377792358398,5.4733123779296875,10.695225715637207,-0.6461885571479797,-0.28336024284362793,-0.18094195425510406,-2.5352535247802734,0.35683202743530273,2.3669281005859375,50,1
2020-11-14 22:18:42.889319,-1.7406377792358398,5.4733123779296875,10.695225715637207,-0.6461885571479797,-0.28336024284362793,-0.18094195425510406,-2.5352535247802734,0.35683202743530273,2.3669281005859375,44,1
2020-11-14 22:18:42.934283,-1.7406377792358398,5.4733123779296875,10.695225715637207,-0.6461885571479797,-0.28336024284362793,-0.18094195425510406,-2.5352535247802734,0.35683202743530273,2.3669281005859375,44,1
2020-11-14 22:18:43.051075,-1.7406377792358398,5.4733123779296875,10.695225715637207,-0.22713495790958405,0.4160804748535156,-0.2298111766576767,-2.5352535247802734,0.35683202743530273,2.3669281005859375,44,1
2020-11-14 22:18:43.054937,-1.7406377792358398,5.4733123779296875,10.695225715637207,-0.22713495790958405,0.4160804748535156,-0.2298111766576767,0.334099143743515,-0.3953871726989746,-0.9749598503112793,44,1
2020-11-14 22:18:43.056612,0.5578660368919373,4.805309772491455,7.336058139801025,-0.22713495790958405,0.4160804748535156,-0.2298111766576767,0.334099143743515,-0.3953871726989746,-0.9749598503112793,44,1
2020-11-14 22:18:43.108884,0.5578660368919373,4.805309772491455,7.336058139801025,-0.22713495790958405,0.4160804748535156,-0.2298111766576767,0.334099143743515,-0.3953871726989746,-0.9749598503112793,38,1
2020-11-14 22:18:43.168930,0.5578660368919373,4.805309772491455,7.336058139801025,-0.22713495790958405,0.4160804748535156,-0.2298111766576767,0.334099143743515,-0.3953871726989746,-0.9749598503112793,36,1
2020-11-14 22:18:43.231116,0.5578660368919373,4.805309772491455,7.336058139801025,0.17114916443824768,-0.2241062968969345,-0.02456044778227806,0.334099143743515,-0.3953871726989746,-0.9749598503112793,36,1
2020-11-14 22:18:43.239960,0.5578660368919373,4.805309772491455,7.336058139801025,0.17114916443824768,-0.2241062968969345,-0.02456044778227806,-1.0125433206558228,1.1160969734191895,0.063079833984375,36,1
2020-11-14 22:18:43.243800,-1.1037607192993164,6.162863254547119,8.47094440460205,0.17114916443824768,-0.2241062968969345,-0.02456044778227806,-1.0125433206558228,1.1160969734191895,0.063079833984375,36,1
2020-11-14 22:18:43.352670,-1.1037607192993164,6.162863254547119,8.47094440460205,0.17114916443824768,-0.2241062968969345,-0.02456044778227806,-1.0125433206558228,1.1160969734191895,0.063079833984375,30,1
2020-11-14 22:18:43.409847,-1.1037607192993164,6.162863254547119,8.47094440460205,1.240774154663086,0.5290905833244324,-0.03616688773036003,-1.0125433206558228,1.1160969734191895,0.063079833984375,30,1
2020-11-14 22:18:43.413069,-1.1037607192993164,6.162863254547119,8.47094440460205,1.240774154663086,0.5290905833244324,-0.03616688773036003,-1.0125433206558228,1.1160969734191895,0.063079833984375,26,1
2020-11-14 22:18:43.416767,-1.1037607192993164,6.162863254547119,8.47094440460205,1.240774154663086,0.5290905833244324,-0.03616688773036003,0.2030550241470337,1.2139830589294434,-1.0982646942138672,26,1
2020-11-14 22:18:43.433193,1.242628574371338,6.8021345138549805,6.8931169509887695,1.240774154663086,0.5290905833244324,-0.03616688773036003,0.2030550241470337,1.2139830589294434,-1.0982646942138672,26,1
2020-11-14 22:18:43.510886,1.242628574371338,6.8021345138549805,6.8931169509887695,1.240774154663086,0.5290905833244324,-0.03616688773036003,0.2030550241470337,1.2139830589294434,-1.0982646942138672,24,1
2020-11-14 22:18:43.568658,1.242628574371338,6.8021345138549805,6.8931169509887695,1.240774154663086,0.5290905833244324,-0.03616688773036003,0.2030550241470337,1.2139830589294434,-1.0982646942138672,27,1
2020-11-14 22:18:43.591436,1.242628574371338,6.8021345138549805,6.8931169509887695,-0.12084441632032394,-0.33894896507263184,-0.061823226511478424,0.2030550241470337,1.2139830589294434,-1.0982646942138672,27,1
2020-11-14 22:18:43.601680,1.242628574371338,6.8021345138549805,6.8931169509887695,-0.12084441632032394,-0.33894896507263184,-0.061823226511478424,-0.359658807516098,-1.1069087982177734,2.5845980644226074,27,1
2020-11-14 22:18:43.606928,0.028731297701597214,5.0064287185668945,10.242707252502441,-0.12084441632032394,-0.33894896507263184,-0.061823226511478424,-0.359658807516098,-1.1069087982177734,2.5845980644226074,27,1
2020-11-14 22:18:43.739239,0.028731297701597214,5.0064287185668945,10.242707252502441,-0.12084441632032394,-0.33894896507263184,-0.061823226511478424,-0.359658807516098,-1.1069087982177734,2.5845980644226074,23,1
2020-11-14 22:18:43.751046,0.028731297701597214,5.0064287185668945,10.242707252502441,-0.12084441632032394,-0.33894896507263184,-0.061823226511478424,-0.359658807516098,-1.1069087982177734,2.5845980644226074,23,1
2020-11-14 22:18:43.772479,0.028731297701597214,5.0064287185668945,10.242707252502441,-0.3096017837524414,0.38920238614082336,-0.09236649423837662,-0.359658807516098,-1.1069087982177734,2.5845980644226074,23,1
2020-11-14 22:18:43.788385,0.028731297701597214,5.0064287185668945,10.242707252502441,-0.3096017837524414,0.38920238614082336,-0.09236649423837662,-0.40601542592048645,-0.1606769561767578,1.0462064743041992,23,1
2020-11-14 22:18:43.790781,0.04070267081260681,5.815693378448486,8.808537483215332,-0.3096017837524414,0.38920238614082336,-0.09236649423837662,-0.40601542592048645,-0.1606769561767578,1.0462064743041992,23,1
2020-11-14 22:18:43.815034,0.04070267081260681,5.815693378448486,8.808537483215332,-0.3096017837524414,0.38920238614082336,-0.09236649423837662,-0.40601542592048645,-0.1606769561767578,1.0462064743041992,23,1
2020-11-14 22:18:43.829290,0.04070267081260681,5.815693378448486,8.808537483215332,-0.3096017837524414,0.38920238614082336,-0.09236649423837662,-0.40601542592048645,-0.1606769561767578,1.0462064743041992,23,1
2020-11-14 22:18:43.909001,0.04070267081260681,5.815693378448486,8.808537483215332,-0.3096017837524414,0.38920238614082336,-0.09236649423837662,-0.40601542592048645,-0.1606769561767578,1.0462064743041992,23,1
2020-11-14 22:18:43.953621,0.04070267081260681,5.815693378448486,8.808537483215332,-0.5453957319259644,0.33972233533859253,-0.08747956901788712,-0.40601542592048645,-0.1606769561767578,1.0462064743041992,23,1
2020-11-14 22:18:43.957675,0.04070267081260681,5.815693378448486,8.808537483215332,-0.5453957319259644,0.33972233533859253,-0.08747956901788712,-1.3752962350845337,0.8684673309326172,-1.90256929397583,23,1
2020-11-14 22:18:43.962016,-1.211503028869629,6.636929988861084,6.0263895988464355,-0.5453957319259644,0.33972233533859253,-0.08747956901788712,-1.3752962350845337,0.8684673309326172,-1.90256929397583,23,1
2020-11-14 22:18:44.092966,-1.211503028869629,6.636929988861084,6.0263895988464355,-0.5453957319259644,0.33972233533859253,-0.08747956901788712,-1.3752962350845337,0.8684673309326172,-1.90256929397583,18,1
2020-11-14 22:18:44.132570,-1.211503028869629,6.636929988861084,6.0263895988464355,-0.5453957319259644,0.33972233533859253,-0.08747956901788712,-1.0318429470062256,1.79569673538208,-2.5000710487365723,18,1
2020-11-14 22:18:44.143396,-1.211503028869629,6.636929988861084,6.0263895988464355,0.38617372512817383,0.24931426346302032,0.5239965319633484,-1.0318429470062256,1.79569673538208,-2.5000710487365723,18,1
2020-11-14 22:18:44.148083,0.016759924590587616,5.662459850311279,9.126976013183594,0.38617372512817383,0.24931426346302032,0.5239965319633484,-1.0318429470062256,1.79569673538208,-2.5000710487365723,18,1
2020-11-14 22:18:44.151841,0.016759924590587616,5.662459850311279,9.126976013183594,0.38617372512817383,0.24931426346302032,0.5239965319633484,-1.0318429470062256,1.79569673538208,-2.5000710487365723,18,1
2020-11-14 22:18:44.311149,0.016759924590587616,5.662459850311279,9.126976013183594,0.5260618925094604,0.2615315616130829,0.45069271326065063,-1.0318429470062256,1.79569673538208,-2.5000710487365723,18,1
2020-11-14 22:18:44.316970,0.016759924590587616,5.662459850311279,9.126976013183594,0.5260618925094604,0.2615315616130829,0.45069271326065063,-0.30861562490463257,1.319636344909668,-2.3358497619628906,18,1
2020-11-14 22:18:44.319535,-0.36392977833747864,6.799740314483643,5.796539306640625,0.5260618925094604,0.2615315616130829,0.45069271326065063,-0.30861562490463257,1.319636344909668,-2.3358497619628906,18,1
2020-11-14 22:18:44.327932,-0.36392977833747864,6.799740314483643,5.796539306640625,0.5260618925094604,0.2615315616130829,0.45069271326065063,-0.30861562490463257,1.319636344909668,-2.3358497619628906,9,1
2020-11-14 22:18:44.489157,-0.36392977833747864,6.799740314483643,5.796539306640625,0.16320791840553284,0.42890864610671997,0.3877736032009125,-0.30861562490463257,1.319636344909668,-2.3358497619628906,9,1
2020-11-14 22:18:44.490081,-0.36392977833747864,6.799740314483643,5.796539306640625,0.16320791840553284,0.42890864610671997,0.3877736032009125,0.5744047164916992,-0.21400833129882812,-0.2505917549133301,9,1
2020-11-14 22:18:44.490503,0.7948992252349854,5.370358467102051,7.807730197906494,0.16320791840553284,0.42890864610671997,0.3877736032009125,0.5744047164916992,-0.21400833129882812,-0.2505917549133301,9,1
2020-11-14 22:18:44.537539,0.7948992252349854,5.370358467102051,7.807730197906494,0.16320791840553284,0.42890864610671997,0.3877736032009125,0.5744047164916992,-0.21400833129882812,-0.2505917549133301,5,0
2020-11-14 22:18:44.567346,0.7948992252349854,5.370358467102051,7.807730197906494,0.16320791840553284,0.42890864610671997,0.3877736032009125,0.5744047164916992,-0.21400833129882812,-0.2505917549133301,5,0
2020-11-14 22:18:44.675616,0.7948992252349854,5.370358467102051,7.807730197906494,0.06546948105096817,0.3256724178791046,0.3413478434085846,0.5744047164916992,-0.21400833129882812,-0.2505917549133301,5,0
2020-11-14 22:18:44.676797,0.7948992252349854,5.370358467102051,7.807730197906494,0.06546948105096817,0.3256724178791046,0.3413478434085846,-0.3856382966041565,-0.35781383514404297,0.021992206573486328,5,0
2020-11-14 22:18:44.677553,-0.23942747712135315,5.430215358734131,7.937020778656006,0.06546948105096817,0.3256724178791046,0.3413478434085846,-0.3856382966041565,-0.35781383514404297,0.021992206573486328,5,0
2020-11-14 22:18:44.699425,-0.23942747712135315,5.430215358734131,7.937020778656006,0.06546948105096817,0.3256724178791046,0.3413478434085846,-0.3856382966041565,-0.35781383514404297,0.021992206573486328,9,0
2020-11-14 22:18:44.750248,-0.23942747712135315,5.430215358734131,7.937020778656006,0.06546948105096817,0.3256724178791046,0.3413478434085846,-0.3856382966041565,-0.35781383514404297,0.021992206573486328,9,0
2020-11-14 22:18:44.847838,-0.23942747712135315,5.430215358734131,7.937020778656006,-0.14711162447929382,0.0037464366760104895,0.2454419881105423,-0.3856382966041565,-0.35781383514404297,0.021992206573486328,9,0
2020-11-14 22:18:44.848862,-0.23942747712135315,5.430215358734131,7.937020778656006,-0.14711162447929382,0.0037464366760104895,0.2454419881105423,-0.07796558737754822,0.36398983001708984,-0.19153690338134766,9,0
2020-11-14 22:18:44.849446,-0.3232271075248718,6.038361072540283,7.802941799163818,-0.14711162447929382,0.0037464366760104895,0.2454419881105423,-0.07796558737754822,0.36398983001708984,-0.19153690338134766,9,0
2020-11-14 22:18:45.034818,-0.3232271075248718,6.038361072540283,7.802941799163818,-0.00905607733875513,0.1289738118648529,0.041412997990846634,-0.07796558737754822,0.36398983001708984,-0.19153690338134766,9,0
2020-11-14 22:18:45.036661,-0.3232271075248718,6.038361072540283,7.802941799163818,-0.00905607733875513,0.1289738118648529,0.041412997990846634,-0.011048495769500732,0.01699542999267578,0.539823055267334,9,0
2020-11-14 22:18:45.037679,-0.18435916304588318,6.146103382110596,8.193208694458008,-0.00905607733875513,0.1289738118648529,0.041412997990846634,-0.011048495769500732,0.01699542999267578,0.539823055267334,9,0
2020-11-14 22:18:45.207734,-0.18435916304588318,6.146103382110596,8.193208694458008,-0.08541423082351685,-0.23265841603279114,0.05118684470653534,-0.011048495769500732,0.01699542999267578,0.539823055267334,9,0
2020-11-14 22:18:45.209113,-0.18435916304588318,6.146103382110596,8.193208694458008,-0.08541423082351685,-0.23265841603279114,0.05118684470653534,0.36021125316619873,-0.15753984451293945,0.9924283027648926,9,0
2020-11-14 22:18:45.210037,-0.13407939672470093,5.921041488647461,8.672063827514648,-0.08541423082351685,-0.23265841603279114,0.05118684470653534,0.36021125316619873,-0.15753984451293945,0.9924283027648926,9,0
2020-11-14 22:18:45.394257,-0.13407939672470093,5.921041488647461,8.672063827514648,0.11678216606378555,0.19739072024822235,0.03652607649564743,0.36021125316619873,-0.15753984451293945,0.9924283027648926,9,0
2020-11-14 22:18:45.395618,-0.13407939672470093,5.921041488647461,8.672063827514648,0.11678216606378555,0.19739072024822235,0.03652607649564743,-0.18123668432235718,0.20396089553833008,-0.6687469482421875,9,0
2020-11-14 22:18:45.396471,-0.6081457734107971,6.38074254989624,6.936213970184326,0.11678216606378555,0.19739072024822235,0.03652607649564743,-0.18123668432235718,0.20396089553833008,-0.6687469482421875,9,0
2020-11-14 22:18:45.527307,-0.6081457734107971,6.38074254989624,6.936213970184326,0.11678216606378555,0.19739072024822235,0.03652607649564743,-0.18123668432235718,0.20396089553833008,-0.6687469482421875,10,0
2020-11-14 22:18:45.567725,-0.6081457734107971,6.38074254989624,6.936213970184326,0.0789085179567337,0.052615657448768616,0.25888100266456604,-0.18123668432235718,0.20396089553833008,-0.6687469482421875,10,0
2020-11-14 22:18:45.568926,-0.6081457734107971,6.38074254989624,6.936213970184326,0.0789085179567337,0.052615657448768616,0.25888100266456604,0.19202515482902527,-0.07398128509521484,0.5401434898376465,10,0
2020-11-14 22:18:45.569668,0.05746259540319443,6.014418125152588,8.226728439331055,0.0789085179567337,0.052615657448768616,0.25888100266456604,0.19202515482902527,-0.07398128509521484,0.5401434898376465,10,0
2020-11-14 22:18:45.708601,0.05746259540319443,6.014418125152588,8.226728439331055,0.0789085179567337,0.052615657448768616,0.25888100266456604,0.19202515482902527,-0.07398128509521484,0.5401434898376465,14,0
2020-11-14 22:18:45.749752,0.05746259540319443,6.014418125152588,8.226728439331055,0.00316122779622674,0.2664184868335724,0.14464923739433289,0.19202515482902527,-0.07398128509521484,0.5401434898376465,14,0
2020-11-14 22:18:45.751377,0.05746259540319443,6.014418125152588,8.226728439331055,0.00316122779622674,0.2664184868335724,0.14464923739433289,0.2745361924171448,0.13927173614501953,-0.3167743682861328,14,0
2020-11-14 22:18:45.752379,0.24421602487564087,6.368771076202393,7.257047176361084,0.00316122779622674,0.2664184868335724,0.14464923739433289,0.2745361924171448,0.13927173614501953,-0.3167743682861328,14,0
2020-11-14 22:18:45.770827,0.24421602487564087,6.368771076202393,7.257047176361084,0.00316122779622674,0.2664184868335724,0.14464923739433289,0.2745361924171448,0.13927173614501953,-0.3167743682861328,14,0
2020-11-14 22:18:45.929211,0.24421602487564087,6.368771076202393,7.257047176361084,0.03920227661728859,0.2407621443271637,0.07562145590782166,0.2745361924171448,0.13927173614501953,-0.3167743682861328,14,0
2020-11-14 22:18:45.931677,0.24421602487564087,6.368771076202393,7.257047176361084,0.03920227661728859,0.2407621443271637,0.07562145590782166,0.10702595114707947,0.14704418182373047,0.15620803833007812,14,0
2020-11-14 22:18:45.933465,-0.2729473412036896,6.352011203765869,7.740690231323242,0.03920227661728859,0.2407621443271637,0.07562145590782166,0.10702595114707947,0.14704418182373047,0.15620803833007812,14,0
2020-11-14 22:18:45.953955,-0.2729473412036896,6.352011203765869,7.740690231323242,0.03920227661728859,0.2407621443271637,0.07562145590782166,0.10702595114707947,0.14704418182373047,0.15620803833007812,15,0
2020-11-14 22:18:46.110829,-0.2729473412036896,6.352011203765869,7.740690231323242,0.00010690141789382324,0.02268325909972191,0.13121019303798676,0.10702595114707947,0.14704418182373047,0.15620803833007812,15,0
2020-11-14 22:18:46.113459,-0.2729473412036896,6.352011203765869,7.740690231323242,0.00010690141789382324,0.02268325909972191,0.13121019303798676,-0.08685952425003052,-0.06647253036499023,-0.4483757019042969,15,0
2020-11-14 22:18:46.115228,-0.43336373567581177,6.299336910247803,7.003253936767578,0.00010690141789382324,0.02268325909972191,0.13121019303798676,-0.08685952425003052,-0.06647253036499023,-0.4483757019042969,15,0
2020-11-14 22:18:46.132153,-0.43336373567581177,6.299336910247803,7.003253936767578,0.00010690141789382324,0.02268325909972191,0.13121019303798676,-0.08685952425003052,-0.06647253036499023,-0.4483757019042969,17,0
2020-11-14 22:18:46.289425,-0.43336373567581177,6.299336910247803,7.003253936767578,-0.03654501214623451,0.07643940299749374,0.19412930309772491,-0.08685952425003052,-0.06647253036499023,-0.4483757019042969,17,0
2020-11-14 22:18:46.291222,-0.43336373567581177,6.299336910247803,7.003253936767578,-0.03654501214623451,0.07643940299749374,0.19412930309772491,-0.3700624108314514,0.035166263580322266,1.13627290725708,17,0
2020-11-14 22:18:46.292542,-1.1708003282546997,6.373559474945068,8.576292037963867,-0.03654501214623451,0.07643940299749374,0.19412930309772491,-0.3700624108314514,0.035166263580322266,1.13627290725708,17,0
2020-11-14 22:18:46.369432,-1.1708003282546997,6.373559474945068,8.576292037963867,-0.03654501214623451,0.07643940299749374,0.19412930309772491,-0.3700624108314514,0.035166263580322266,1.13627290725708,18,0
2020-11-14 22:18:46.479386,-1.1708003282546997,6.373559474945068,8.576292037963867,0.20780108869075775,0.3763742446899414,0.5001727938652039,-0.3700624108314514,0.035166263580322266,1.13627290725708,18,0
2020-11-14 22:18:46.482435,-1.1708003282546997,6.373559474945068,8.576292037963867,0.20780108869075775,0.3763742446899414,0.5001727938652039,-0.2801779508590698,-0.2317061424255371,0.7043194770812988,18,0
2020-11-14 22:18:46.484067,-0.9505270719528198,6.330462455749512,7.960963726043701,0.20780108869075775,0.3763742446899414,0.5001727938652039,-0.2801779508590698,-0.2317061424255371,0.7043194770812988,18,0
2020-11-14 22:18:46.649707,-0.9505270719528198,6.330462455749512,7.960963726043701,0.10700831562280655,0.7209022045135498,0.6993148922920227,-0.2801779508590698,-0.2317061424255371,0.7043194770812988,18,0
2020-11-14 22:18:46.651474,-0.9505270719528198,6.330462455749512,7.960963726043701,0.10700831562280655,0.7209022045135498,0.6993148922920227,0.11420178413391113,-0.6738128662109375,0.3499765396118164,18,0
2020-11-14 22:18:46.652607,-0.6153286099433899,6.193988800048828,7.31211519241333,0.10700831562280655,0.7209022045135498,0.6993148922920227,0.11420178413391113,-0.6738128662109375,0.3499765396118164,18,0
2020-11-14 22:18:46.835764,-0.6153286099433899,6.193988800048828,7.31211519241333,-0.00905607733875513,0.7642737030982971,0.7811708450317383,0.11420178413391113,-0.6738128662109375,0.3499765396118164,18,0
2020-11-14 22:18:46.837545,-1.1684061288833618,6.663266658782959,6.792557716369629,-0.00905607733875513,0.7642737030982971,0.7811708450317383,0.11420178413391113,-0.6738128662109375,0.3499765396118164,18,0
2020-11-14 22:18:46.838712,-1.1684061288833618,6.663266658782959,6.792557716369629,-0.00905607733875513,0.7642737030982971,0.7811708450317383,-0.11139380931854248,-0.36465930938720703,0.035246849060058594,18,0
2020-11-14 22:18:46.969797,-1.1684061288833618,6.663266658782959,6.792557716369629,-0.00905607733875513,0.7642737030982971,0.7811708450317383,-0.11139380931854248,-0.36465930938720703,0.035246849060058594,19,0
2020-11-14 22:18:47.009426,-1.1684061288833618,6.663266658782959,6.792557716369629,0.37517815828323364,0.6830285787582397,0.786057710647583,-0.11139380931854248,-0.36465930938720703,0.035246849060058594,19,0
2020-11-14 22:18:47.011869,-1.1684061288833618,6.663266658782959,6.792557716369629,0.37517815828323364,0.6830285787582397,0.786057710647583,-0.5935535430908203,-0.19181108474731445,-0.3618903160095215,19,0
2020-11-14 22:18:47.012976,-1.0798178911209106,7.199584484100342,6.064698219299316,0.37517815828323364,0.6830285787582397,0.786057710647583,-0.5935535430908203,-0.19181108474731445,-0.3618903160095215,19,0
2020-11-14 22:18:47.089671,-1.0798178911209106,7.199584484100342,6.064698219299316,0.37517815828323364,0.6830285787582397,0.786057710647583,-0.5935535430908203,-0.19181108474731445,-0.3618903160095215,27,0
2020-11-14 22:18:47.149183,-1.0798178911209106,7.199584484100342,6.064698219299316,0.37517815828323364,0.6830285787582397,0.786057710647583,-0.5935535430908203,-0.19181108474731445,-0.3618903160095215,27,0
2020-11-14 22:18:47.194786,-1.0798178911209106,7.199584484100342,6.064698219299316,0.05569564178586006,1.152783989906311,1.236876368522644,-0.5935535430908203,-0.19181108474731445,-0.3618903160095215,27,0
2020-11-14 22:18:47.198057,-1.0798178911209106,7.199584484100342,6.064698219299316,0.05569564178586006,1.152783989906311,1.236876368522644,-0.39604392647743225,-1.1963582038879395,0.9580626487731934,27,0
2020-11-14 22:18:47.200632,-0.8020820617675781,6.32088565826416,7.242681503295898,0.05569564178586006,1.152783989906311,1.236876368522644,-0.39604392647743225,-1.1963582038879395,0.9580626487731934,27,0
2020-11-14 22:18:47.288317,-0.8020820617675781,6.32088565826416,7.242681503295898,0.05569564178586006,1.152783989906311,1.236876368522644,-0.39604392647743225,-1.1963582038879395,0.9580626487731934,28,0
2020-11-14 22:18:47.309498,-0.8020820617675781,6.32088565826416,7.242681503295898,0.05569564178586006,1.152783989906311,1.236876368522644,-0.39604392647743225,-1.1963582038879395,0.9580626487731934,28,0
2020-11-14 22:18:47.337609,-0.8020820617675781,6.32088565826416,7.242681503295898,0.05569564178586006,1.152783989906311,1.236876368522644,-0.39604392647743225,-1.1963582038879395,0.9580626487731934,28,0
2020-11-14 22:18:47.591025,-0.8020820617675781,6.32088565826416,7.242681503295898,0.18214474618434906,1.1698881387710571,1.7707724571228027,-0.39604392647743225,-1.1963582038879395,0.9580626487731934,28,0
2020-11-14 22:18:47.614537,-0.8020820617675781,6.32088565826416,7.242681503295898,-0.1031293272972107,-0.8746777772903442,2.430507183074951,-0.39604392647743225,-1.1963582038879395,0.9580626487731934,28,0
2020-11-14 22:18:47.619772,-0.8020820617675781,6.32088565826416,7.242681503295898,-0.1031293272972107,-0.8746777772903442,2.430507183074951,1.1344666481018066,-2.059772491455078,1.5236420631408691,28,0
2020-11-14 22:18:47.622919,-0.8020820617675781,6.32088565826416,7.242681503295898,-0.1031293272972107,-0.8746777772903442,2.430507183074951,1.2077786922454834,-3.264789342880249,0.2885704040527344,28,0
2020-11-14 22:18:47.625350,1.7286664247512817,5.559505939483643,7.668862342834473,-0.1031293272972107,-0.8746777772903442,2.430507183074951,1.2077786922454834,-3.264789342880249,0.2885704040527344,28,0
2020-11-14 22:18:47.627641,4.278569221496582,3.818868398666382,6.335251331329346,-0.1031293272972107,-0.8746777772903442,2.430507183074951,1.2077786922454834,-3.264789342880249,0.2885704040527344,28,0
2020-11-14 22:18:47.629630,4.278569221496582,3.818868398666382,6.335251331329346,-0.1031293272972107,-0.8746777772903442,2.430507183074951,1.2077786922454834,-3.264789342880249,0.2885704040527344,34,0
2020-11-14 22:18:47.636807,4.278569221496582,3.818868398666382,6.335251331329346,-0.1031293272972107,-0.8746777772903442,2.430507183074951,1.2077786922454834,-3.264789342880249,0.2885704040527344,43,1
2020-11-14 22:18:47.687683,4.278569221496582,3.818868398666382,6.335251331329346,-0.1031293272972107,-0.8746777772903442,2.430507183074951,1.2077786922454834,-3.264789342880249,0.2885704040527344,31,1
2020-11-14 22:18:47.728722,4.278569221496582,3.818868398666382,6.335251331329346,0.8553182482719421,-1.2234817743301392,3.0633633136749268,1.2077786922454834,-3.264789342880249,0.2885704040527344,31,1
2020-11-14 22:18:47.731074,4.278569221496582,3.818868398666382,6.335251331329346,0.8553182482719421,-1.2234817743301392,3.0633633136749268,-2.727524757385254,-5.1685614585876465,-4.040637016296387,31,1
2020-11-14 22:18:47.732851,4.3863115310668945,0.6464542150497437,-0.6129343509674072,0.8553182482719421,-1.2234817743301392,3.0633633136749268,-2.727524757385254,-5.1685614585876465,-4.040637016296387,31,1
2020-11-14 22:18:47.871894,4.3863115310668945,0.6464542150497437,-0.6129343509674072,0.8553182482719421,-1.2234817743301392,3.0633633136749268,-2.727524757385254,-5.1685614585876465,-4.040637016296387,17,1
2020-11-14 22:18:47.910339,4.3863115310668945,0.6464542150497437,-0.6129343509674072,0.9646631479263306,-0.16118718683719635,2.9815073013305664,-2.727524757385254,-5.1685614585876465,-4.040637016296387,17,1
2020-11-14 22:18:47.912727,4.3863115310668945,0.6464542150497437,-0.6129343509674072,0.9646631479263306,-0.16118718683719635,2.9815073013305664,2.00417423248291,-4.641212463378906,-3.8129191398620605,17,1
2020-11-14 22:18:47.914388,11.458999633789062,-4.33124303817749,-1.228263020515442,0.9646631479263306,-0.16118718683719635,2.9815073013305664,2.00417423248291,-4.641212463378906,-3.8129191398620605,17,1
2020-11-14 22:18:48.029301,11.458999633789062,-4.33124303817749,-1.228263020515442,0.9646631479263306,-0.16118718683719635,2.9815073013305664,2.00417423248291,-4.641212463378906,-3.8129191398620605,11,1
2020-11-14 22:18:48.088336,11.458999633789062,-4.33124303817749,-1.228263020515442,-1.444589376449585,-0.6901964545249939,2.740215539932251,2.00417423248291,-4.641212463378906,-3.8129191398620605,11,1
2020-11-14 22:18:48.091763,11.458999633789062,-4.33124303817749,-1.228263020515442,-1.444589376449585,-0.6901964545249939,2.740215539932251,2.00417423248291,-4.641212463378906,-3.8129191398620605,7,1
2020-11-14 22:18:48.093626,11.458999633789062,-4.33124303817749,-1.228263020515442,-1.444589376449585,-0.6901964545249939,2.740215539932251,-1.075819969177246,-7.017949104309082,1.0385061502456665,7,1
2020-11-14 22:18:48.100916,8.004060745239258,-10.71437931060791,1.2881197929382324,-1.444589376449585,-0.6901964545249939,2.740215539932251,-1.075819969177246,-7.017949104309082,1.0385061502456665,7,1
2020-11-14 22:18:48.270960,8.004060745239258,-10.71437931060791,1.2881197929382324,0.487577348947525,0.7355629801750183,3.046870231628418,-1.075819969177246,-7.017949104309082,1.0385061502456665,7,1
2020-11-14 22:18:48.274394,10.051165580749512,-11.85405445098877,1.8052831888198853,0.487577348947525,0.7355629801750183,3.046870231628418,-1.075819969177246,-7.017949104309082,1.0385061502456665,7,1
2020-11-14 22:18:48.279754,10.051165580749512,-11.85405445098877,1.8052831888198853,0.487577348947525,0.7355629801750183,3.046870231628418,-1.075819969177246,-7.017949104309082,1.0385061502456665,0,1
2020-11-14 22:18:48.281849,10.051165580749512,-11.85405445098877,1.8052831888198853,0.487577348947525,0.7355629801750183,3.046870231628418,5.14376163482666,-3.3636226654052734,1.795013666152954,0,1
2020-11-14 22:18:48.328262,10.051165580749512,-11.85405445098877,1.8052831888198853,0.487577348947525,0.7355629801750183,3.046870231628418,5.14376163482666,-3.3636226654052734,1.795013666152954,0,1
2020-11-14 22:18:48.448841,10.051165580749512,-11.85405445098877,1.8052831888198853,-0.4348291754722595,0.4111935496330261,1.2594783306121826,5.14376163482666,-3.3636226654052734,1.795013666152954,0,1
2020-11-14 22:18:48.454715,10.051165580749512,-11.85405445098877,1.8052831888198853,-0.4348291754722595,0.4111935496330261,1.2594783306121826,3.618359088897705,1.9915151596069336,-2.10725736618042,0,1
2020-11-14 22:18:48.455934,5.583448886871338,-7.589851379394531,-1.3958622217178345,-0.4348291754722595,0.4111935496330261,1.2594783306121826,3.618359088897705,1.9915151596069336,-2.10725736618042,0,1
2020-11-14 22:18:48.511481,5.583448886871338,-7.589851379394531,-1.3958622217178345,-0.4348291754722595,0.4111935496330261,1.2594783306121826,3.618359088897705,1.9915151596069336,-2.10725736618042,5,1
2020-11-14 22:18:48.569818,5.583448886871338,-7.589851379394531,-1.3958622217178345,-0.4348291754722595,0.4111935496330261,1.2594783306121826,3.618359088897705,1.9915151596069336,-2.10725736618042,5,1
2020-11-14 22:18:48.634455,5.583448886871338,-7.589851379394531,-1.3958622217178345,-0.8318915367126465,-0.8331390023231506,-1.0960180759429932,3.618359088897705,1.9915151596069336,-2.10725736618042,5,1
2020-11-14 22:18:48.641413,5.583448886871338,-7.589851379394531,-1.3958622217178345,-0.8318915367126465,-0.8331390023231506,-1.0960180759429932,6.348076343536377,1.6874780654907227,1.96139395236969,5,1
2020-11-14 22:18:48.645954,7.939415454864502,-7.975329399108887,1.4437477588653564,-0.8318915367126465,-0.8331390023231506,-1.0960180759429932,6.348076343536377,1.6874780654907227,1.96139395236969,5,1
2020-11-14 22:18:48.751306,7.939415454864502,-7.975329399108887,1.4437477588653564,-0.8318915367126465,-0.8331390023231506,-1.0960180759429932,6.348076343536377,1.6874780654907227,1.96139395236969,1,1
2020-11-14 22:18:48.812343,7.939415454864502,-7.975329399108887,1.4437477588653564,0.1955837905406952,-1.0579373836517334,-2.800942897796631,6.348076343536377,1.6874780654907227,1.96139395236969,1,1
2020-11-14 22:18:48.818809,7.939415454864502,-7.975329399108887,1.4437477588653564,0.1955837905406952,-1.0579373836517334,-2.800942897796631,6.348076343536377,1.6874780654907227,1.96139395236969,0,1
2020-11-14 22:18:48.822007,7.939415454864502,-7.975329399108887,1.4437477588653564,0.1955837905406952,-1.0579373836517334,-2.800942897796631,1.9453034400939941,-4.537469863891602,1.7720547914505005,0,1
2020-11-14 22:18:48.823602,6.687209606170654,-12.981758117675781,0.2298503816127777,0.1955837905406952,-1.0579373836517334,-2.800942897796631,1.9453034400939941,-4.537469863891602,1.7720547914505005,0,1
2020-11-14 22:18:48.991913,6.687209606170654,-12.981758117675781,0.2298503816127777,0.4716948866844177,-0.0732225850224495,-1.5786017179489136,1.9453034400939941,-4.537469863891602,1.7720547914505005,0,1
2020-11-14 22:18:48.996483,6.687209606170654,-12.981758117675781,0.2298503816127777,0.4716948866844177,-0.0732225850224495,-1.5786017179489136,1.9453034400939941,-4.537469863891602,1.7720547914505005,1,1
2020-11-14 22:18:48.999185,6.687209606170654,-12.981758117675781,0.2298503816127777,0.4716948866844177,-0.0732225850224495,-1.5786017179489136,-7.057950496673584,-2.7091879844665527,1.854972243309021,1,1
2020-11-14 22:18:49.001212,0.3830839693546295,-8.80374813079834,-0.05746259540319443,0.4716948866844177,-0.0732225850224495,-1.5786017179489136,-7.057950496673584,-2.7091879844665527,1.854972243309021,1,1
2020-11-14 22:18:49.172011,0.3830839693546295,-8.80374813079834,-0.05746259540319443,-0.21675026416778564,-0.19234131276607513,1.4500682353973389,-7.057950496673584,-2.7091879844665527,1.854972243309021,1,1
2020-11-14 22:18:49.179438,0.3830839693546295,-8.80374813079834,-0.05746259540319443,-0.21675026416778564,-0.19234131276607513,1.4500682353973389,-5.943408966064453,-4.563673496246338,2.25972318649292,1,1
2020-11-14 22:18:49.183823,1.6759923696517944,-10.498894691467285,0.5602602958679199,-0.21675026416778564,-0.19234131276607513,1.4500682353973389,-5.943408966064453,-4.563673496246338,2.25972318649292,1,1
2020-11-14 22:18:49.231369,1.6759923696517944,-10.498894691467285,0.5602602958679199,-0.21675026416778564,-0.19234131276607513,1.4500682353973389,-5.943408966064453,-4.563673496246338,2.25972318649292,3,1
2020-11-14 22:18:49.352352,1.6759923696517944,-10.498894691467285,0.5602602958679199,0.1656513810157776,0.6512635946273804,2.2448039054870605,-5.943408966064453,-4.563673496246338,2.25972318649292,3,1
2020-11-14 22:18:49.357612,1.6759923696517944,-10.498894691467285,0.5602602958679199,0.1656513810157776,0.6512635946273804,2.2448039054870605,1.2073554992675781,-1.562474250793457,1.3384801149368286,3,1
2020-11-14 22:18:49.359519,6.385530948638916,-9.75188159942627,-0.17478206753730774,0.1656513810157776,0.6512635946273804,2.2448039054870605,1.2073554992675781,-1.562474250793457,1.3384801149368286,3,1
2020-11-14 22:18:49.471584,6.385530948638916,-9.75188159942627,-0.17478206753730774,0.1656513810157776,0.6512635946273804,2.2448039054870605,1.2073554992675781,-1.562474250793457,1.3384801149368286,2,1
2020-11-14 22:18:49.532009,6.385530948638916,-9.75188159942627,-0.17478206753730774,0.43015602231025696,0.3983653783798218,0.8642484545707703,1.2073554992675781,-1.562474250793457,1.3384801149368286,2,1
2020-11-14 22:18:49.540872,6.385530948638916,-9.75188159942627,-0.17478206753730774,0.43015602231025696,0.3983653783798218,0.8642484545707703,1.2073554992675781,-1.562474250793457,1.3384801149368286,5,1
2020-11-14 22:18:49.543383,6.385530948638916,-9.75188159942627,-0.17478206753730774,0.43015602231025696,0.3983653783798218,0.8642484545707703,8.066890716552734,0.9865684509277344,-2.037595748901367,5,1
2020-11-14 22:18:49.545726,10.127782821655273,-8.588263511657715,-2.5331428050994873,0.43015602231025696,0.3983653783798218,0.8642484545707703,8.066890716552734,0.9865684509277344,-2.037595748901367,5,1
2020-11-14 22:18:49.712221,10.127782821655273,-8.588263511657715,-2.5331428050994873,-0.11473576724529266,-1.0322810411453247,-2.1552586555480957,8.066890716552734,0.9865684509277344,-2.037595748901367,5,1
2020-11-14 22:18:49.727436,10.127782821655273,-8.588263511657715,-2.5331428050994873,-0.11473576724529266,-1.0322810411453247,-2.1552586555480957,8.066890716552734,0.9865684509277344,-2.037595748901367,5,1
2020-11-14 22:18:49.729207,10.127782821655273,-8.588263511657715,-2.5331428050994873,-0.11473576724529266,-1.0322810411453247,-2.1552586555480957,3.3015506267547607,0.10792064666748047,-0.41376596689224243,5,1
2020-11-14 22:18:49.731076,6.1197662353515625,-9.261054992675781,-1.0846065282821655,-0.11473576724529266,-1.0322810411453247,-2.1552586555480957,3.3015506267547607,0.10792064666748047,-0.41376596689224243,5,1
2020-11-14 22:18:49.769042,6.1197662353515625,-9.261054992675781,-1.0846065282821655,-0.11473576724529266,-1.0322810411453247,-2.1552586555480957,3.3015506267547607,0.10792064666748047,-0.41376596689224243,2,1
2020-11-14 22:18:49.892503,6.1197662353515625,-9.261054992675781,-1.0846065282821655,-0.22713495790958405,-1.955909252166748,-2.8174362182617188,3.3015506267547607,0.10792064666748047,-0.41376596689224243,2,1
2020-11-14 22:18:49.898340,6.1197662353515625,-9.261054992675781,-1.0846065282821655,-0.22713495790958405,-1.955909252166748,-2.8174362182617188,0.9131546020507812,-4.293292999267578,1.1958438158035278,2,1
2020-11-14 22:18:49.901491,6.756643295288086,-11.849266052246094,-1.0247496366500854,-0.22713495790958405,-1.955909252166748,-2.8174362182617188,0.9131546020507812,-4.293292999267578,1.1958438158035278,2,1
2020-11-14 22:18:49.951354,6.756643295288086,-11.849266052246094,-1.0247496366500854,-0.22713495790958405,-1.955909252166748,-2.8174362182617188,0.9131546020507812,-4.293292999267578,1.1958438158035278,1,1
2020-11-14 22:18:50.009655,6.756643295288086,-11.849266052246094,-1.0247496366500854,-0.22713495790958405,-1.955909252166748,-2.8174362182617188,0.9131546020507812,-4.293292999267578,1.1958438158035278,4,1
2020-11-14 22:18:50.071916,6.756643295288086,-11.849266052246094,-1.0247496366500854,-1.2136824131011963,-0.3603292405605316,-1.4197765588760376,0.9131546020507812,-4.293292999267578,1.1958438158035278,4,1
2020-11-14 22:18:50.079296,6.756643295288086,-11.849266052246094,-1.0247496366500854,-1.2136824131011963,-0.3603292405605316,-1.4197765588760376,-5.762821197509766,-5.00046443939209,2.6260948181152344,4,1
2020-11-14 22:18:50.082551,2.142875909805298,-9.126976013183594,-1.453324794769287,-1.2136824131011963,-0.3603292405605316,-1.4197765588760376,-5.762821197509766,-5.00046443939209,2.6260948181152344,4,1
2020-11-14 22:18:50.190981,2.142875909805298,-9.126976013183594,-1.453324794769287,-1.2136824131011963,-0.3603292405605316,-1.4197765588760376,-5.762821197509766,-5.00046443939209,2.6260948181152344,8,1
2020-11-14 22:18:50.253176,2.142875909805298,-9.126976013183594,-1.453324794769287,-0.2094198763370514,0.3122333884239197,1.6351604461669922,-5.762821197509766,-5.00046443939209,2.6260948181152344,8,1
2020-11-14 22:18:50.259926,2.142875909805298,-9.126976013183594,-1.453324794769287,-0.2094198763370514,0.3122333884239197,1.6351604461669922,-6.470616817474365,-7.647402763366699,2.5200963020324707,8,1
2020-11-14 22:18:50.263323,1.3886793851852417,-11.291399955749512,-2.075836181640625,-0.2094198763370514,0.3122333884239197,1.6351604461669922,-6.470616817474365,-7.647402763366699,2.5200963020324707,8,1
2020-11-14 22:18:50.436680,1.3886793851852417,-11.291399955749512,-2.075836181640625,0.6433480381965637,0.6628700494766235,2.097585439682007,-6.470616817474365,-7.647402763366699,2.5200963020324707,8,1
2020-11-14 22:18:50.443695,1.3886793851852417,-11.291399955749512,-2.075836181640625,0.6433480381965637,0.6628700494766235,2.097585439682007,-6.470616817474365,-7.647402763366699,2.5200963020324707,3,1
2020-11-14 22:18:50.447001,1.3886793851852417,-11.291399955749512,-2.075836181640625,0.6433480381965637,0.6628700494766235,2.097585439682007,-0.6592473983764648,-3.993560314178467,0.8445992469787598,3,1
2020-11-14 22:18:50.450217,5.600208759307861,-10.707197189331055,-2.607365369796753,0.6433480381965637,0.6628700494766235,2.097585439682007,-0.6592473983764648,-3.993560314178467,0.8445992469787598,3,1
2020-11-14 22:18:50.491270,5.600208759307861,-10.707197189331055,-2.607365369796753,0.6433480381965637,0.6628700494766235,2.097585439682007,-0.6592473983764648,-3.993560314178467,0.8445992469787598,1,1
2020-11-14 22:18:50.612708,5.600208759307861,-10.707197189331055,-2.607365369796753,0.32936328649520874,1.5162488222122192,1.4818332195281982,-0.6592473983764648,-3.993560314178467,0.8445992469787598,1,1
2020-11-14 22:18:50.625629,5.600208759307861,-10.707197189331055,-2.607365369796753,0.32936328649520874,1.5162488222122192,1.4818332195281982,1.8726482391357422,-0.48601531982421875,0.768744945526123,1,1
2020-11-14 22:18:50.629157,6.0263895988464355,-9.126976013183594,-1.2929084300994873,0.32936328649520874,1.5162488222122192,1.4818332195281982,1.8726482391357422,-0.48601531982421875,0.768744945526123,1,1
2020-11-14 22:18:50.734403,6.0263895988464355,-9.126976013183594,-1.2929084300994873,0.32936328649520874,1.5162488222122192,1.4818332195281982,1.8726482391357422,-0.48601531982421875,0.768744945526123,5,1
2020-11-14 22:18:50.796308,6.0263895988464355,-9.126976013183594,-1.2929084300994873,-0.03898847475647926,1.846726894378662,1.2203829288482666,1.8726482391357422,-0.48601531982421875,0.768744945526123,5,1
2020-11-14 22:18:50.805605,6.0263895988464355,-9.126976013183594,-1.2929084300994873,-0.03898847475647926,1.846726894378662,1.2203829288482666,6.446969509124756,1.4924421310424805,-1.3090450763702393,5,1
2020-11-14 22:18:50.811377,8.384750366210938,-8.0615234375,-2.3751206398010254,-0.03898847475647926,1.846726894378662,1.2203829288482666,6.446969509124756,1.4924421310424805,-1.3090450763702393,5,1
2020-11-14 22:18:50.910330,8.384750366210938,-8.0615234375,-2.3751206398010254,-0.03898847475647926,1.846726894378662,1.2203829288482666,6.446969509124756,1.4924421310424805,-1.3090450763702393,4,1
2020-11-14 22:18:50.971354,8.384750366210938,-8.0615234375,-2.3751206398010254,0.13571897149085999,0.32445067167282104,-1.4423786401748657,6.446969509124756,1.4924421310424805,-1.3090450763702393,4,1
2020-11-14 22:18:50.974835,8.384750366210938,-8.0615234375,-2.3751206398010254,0.13571897149085999,0.32445067167282104,-1.4423786401748657,6.446969509124756,1.4924421310424805,-1.3090450763702393,2,1
2020-11-14 22:18:50.979864,8.384750366210938,-8.0615234375,-2.3751206398010254,0.13571897149085999,0.32445067167282104,-1.4423786401748657,6.118182182312012,0.23117446899414062,-0.5010464787483215,2,1
2020-11-14 22:18:50.981958,8.56432056427002,-9.244295120239258,-1.1348862648010254,0.13571897149085999,0.32445067167282104,-1.4423786401748657,6.118182182312012,0.23117446899414062,-0.5010464787483215,2,1
2020-11-14 22:18:51.153077,8.56432056427002,-9.244295120239258,-1.1348862648010254,0.1601535975933075,-0.9950182437896729,-2.1790823936462402,6.118182182312012,0.23117446899414062,-0.5010464787483215,2,1
2020-11-14 22:18:51.159511,8.56432056427002,-9.244295120239258,-1.1348862648010254,0.1601535975933075,-0.9950182437896729,-2.1790823936462402,6.118182182312012,0.23117446899414062,-0.5010464787483215,0,1
2020-11-14 22:18:51.162765,8.56432056427002,-9.244295120239258,-1.1348862648010254,0.1601535975933075,-0.9950182437896729,-2.1790823936462402,2.500910758972168,-3.027357578277588,1.446455717086792,0,1
2020-11-14 22:18:51.164797,8.20278549194336,-10.965778350830078,0.6464542150497437,0.1601535975933075,-0.9950182437896729,-2.1790823936462402,2.500910758972168,-3.027357578277588,1.446455717086792,0,1
2020-11-14 22:18:51.331530,8.20278549194336,-10.965778350830078,0.6464542150497437,0.9707717895507812,-1.6871285438537598,-2.857142686843872,2.500910758972168,-3.027357578277588,1.446455717086792,0,1
2020-11-14 22:18:51.340027,8.20278549194336,-10.965778350830078,0.6464542150497437,0.9707717895507812,-1.6871285438537598,-2.857142686843872,-1.541578769683838,-5.555200099945068,3.895504951477051,0,1
2020-11-14 22:18:51.344029,6.76143217086792,-10.42227840423584,2.013585090637207,0.9707717895507812,-1.6871285438537598,-2.857142686843872,-1.541578769683838,-5.555200099945068,3.895504951477051,0,1
2020-11-14 22:18:51.389587,6.76143217086792,-10.42227840423584,2.013585090637207,0.9707717895507812,-1.6871285438537598,-2.857142686843872,-1.541578769683838,-5.555200099945068,3.895504951477051,3,1
2020-11-14 22:18:51.449712,6.76143217086792,-10.42227840423584,2.013585090637207,0.9707717895507812,-1.6871285438537598,-2.857142686843872,-1.541578769683838,-5.555200099945068,3.895504951477051,3,1
2020-11-14 22:18:51.510959,6.76143217086792,-10.42227840423584,2.013585090637207,1.327517032623291,-0.6999703645706177,-0.7038425803184509,-1.541578769683838,-5.555200099945068,3.895504951477051,3,1
2020-11-14 22:18:51.514272,6.76143217086792,-10.42227840423584,2.013585090637207,1.327517032623291,-0.6999703645706177,-0.7038425803184509,-6.575567245483398,-5.383933067321777,5.4189958572387695,3,1
2020-11-14 22:18:51.516292,2.4277946949005127,-7.5491485595703125,2.1907615661621094,1.327517032623291,-0.6999703645706177,-0.7038425803184509,-6.575567245483398,-5.383933067321777,5.4189958572387695,3,1
2020-11-14 22:18:51.630075,2.4277946949005127,-7.5491485595703125,2.1907615661621094,1.327517032623291,-0.6999703645706177,-0.7038425803184509,-6.575567245483398,-5.383933067321777,5.4189958572387695,2,1
2020-11-14 22:18:51.691579,2.4277946949005127,-7.5491485595703125,2.1907615661621094,0.8333271145820618,0.34888532757759094,2.46899151802063,-6.575567245483398,-5.383933067321777,5.4189958572387695,2,1
2020-11-14 22:18:51.696991,2.4277946949005127,-7.5491485595703125,2.1907615661621094,0.8333271145820618,0.34888532757759094,2.46899151802063,-6.575567245483398,-5.383933067321777,5.4189958572387695,1,1
2020-11-14 22:18:51.699309,2.4277946949005127,-7.5491485595703125,2.1907615661621094,0.8333271145820618,0.34888532757759094,2.46899151802063,-4.807590007781982,-4.192535400390625,-0.5597827434539795,1,1
2020-11-14 22:18:51.701325,3.6656346321105957,-8.085466384887695,-3.596200704574585,0.8333271145820618,0.34888532757759094,2.46899151802063,-4.807590007781982,-4.192535400390625,-0.5597827434539795,1,1
2020-11-14 22:18:51.876440,3.6656346321105957,-8.085466384887695,-3.596200704574585,0.03614794835448265,-0.4574568271636963,1.9717471599578857,-4.807590007781982,-4.192535400390625,-0.5597827434539795,1,1
2020-11-14 22:18:51.887440,3.6656346321105957,-8.085466384887695,-3.596200704574585,0.03614794835448265,-0.4574568271636963,1.9717471599578857,-4.807590007781982,-4.192535400390625,-0.5597827434539795,0,1
2020-11-14 22:18:51.893189,3.6656346321105957,-8.085466384887695,-3.596200704574585,0.03614794835448265,-0.4574568271636963,1.9717471599578857,2.3739542961120605,-3.4634528160095215,-1.0420751571655273,0,1
2020-11-14 22:18:51.897291,8.430241584777832,-10.788601875305176,-3.4573328495025635,0.03614794835448265,-0.4574568271636963,1.9717471599578857,2.3739542961120605,-3.4634528160095215,-1.0420751571655273,0,1
2020-11-14 22:18:52.051327,8.430241584777832,-10.788601875305176,-3.4573328495025635,0.08562804013490677,-1.2149296998977661,1.0762187242507935,2.3739542961120605,-3.4634528160095215,-1.0420751571655273,0,1
2020-11-14 22:18:52.059236,8.430241584777832,-10.788601875305176,-3.4573328495025635,0.08562804013490677,-1.2149296998977661,1.0762187242507935,2.4486093521118164,1.5711536407470703,-2.534134864807129,0,1
2020-11-14 22:18:52.062267,6.112583637237549,-7.2067670822143555,-4.920234680175781,0.08562804013490677,-1.2149296998977661,1.0762187242507935,2.4486093521118164,1.5711536407470703,-2.534134864807129,0,1
2020-11-14 22:18:52.112014,6.112583637237549,-7.2067670822143555,-4.920234680175781,0.08562804013490677,-1.2149296998977661,1.0762187242507935,2.4486093521118164,1.5711536407470703,-2.534134864807129,6,1
2020-11-14 22:18:52.172612,6.112583637237549,-7.2067670822143555,-4.920234680175781,0.08562804013490677,-1.2149296998977661,1.0762187242507935,2.4486093521118164,1.5711536407470703,-2.534134864807129,7,1
2020-11-14 22:18:52.235880,6.112583637237549,-7.2067670822143555,-4.920234680175781,0.9023548364639282,-4.023688316345215,-0.23164376616477966,2.4486093521118164,1.5711536407470703,-2.534134864807129,7,1
2020-11-14 22:18:52.242174,6.112583637237549,-7.2067670822143555,-4.920234680175781,0.9023548364639282,-4.023688316345215,-0.23164376616477966,7.166966438293457,0.16377925872802734,1.176988124847412,7,1
2020-11-14 22:18:52.244868,8.616994857788086,-9.026415824890137,-1.922602653503418,0.9023548364639282,-4.023688316345215,-0.23164376616477966,7.166966438293457,0.16377925872802734,1.176988124847412,7,1
2020-11-14 22:18:52.351576,8.616994857788086,-9.026415824890137,-1.922602653503418,0.9023548364639282,-4.023688316345215,-0.23164376616477966,7.166966438293457,0.16377925872802734,1.176988124847412,4,1
2020-11-14 22:18:52.411741,8.616994857788086,-9.026415824890137,-1.922602653503418,0.40572142601013184,-3.2491111755371094,-2.92433762550354,7.166966438293457,0.16377925872802734,1.176988124847412,4,1
2020-11-14 22:18:52.426985,8.616994857788086,-9.026415824890137,-1.922602653503418,0.40572142601013184,-3.2491111755371094,-2.92433762550354,7.166966438293457,0.16377925872802734,1.176988124847412,5,1
2020-11-14 22:18:52.431681,8.616994857788086,-9.026415824890137,-1.922602653503418,0.40572142601013184,-3.2491111755371094,-2.92433762550354,4.21043586730957,-2.787445068359375,13.437482833862305,5,1
2020-11-14 22:18:52.434154,5.660065650939941,-11.705609321594238,9.624984741210938,0.40572142601013184,-3.2491111755371094,-2.92433762550354,4.21043586730957,-2.787445068359375,13.437482833862305,5,1
2020-11-14 22:18:52.595939,5.660065650939941,-11.705609321594238,9.624984741210938,1.5236048698425293,0.6427114605903625,-1.7362048625946045,4.21043586730957,-2.787445068359375,13.437482833862305,5,1
2020-11-14 22:18:52.614629,5.660065650939941,-11.705609321594238,9.624984741210938,1.5236048698425293,0.6427114605903625,-1.7362048625946045,4.21043586730957,-2.787445068359375,13.437482833862305,3,1
2020-11-14 22:18:52.620221,5.660065650939941,-11.705609321594238,9.624984741210938,1.5236048698425293,0.6427114605903625,-1.7362048625946045,1.5199859142303467,-1.330780029296875,5.888184547424316,3,1
2020-11-14 22:18:52.623096,5.45176362991333,-9.97215461730957,3.4309957027435303,1.5236048698425293,0.6427114605903625,-1.7362048625946045,1.5199859142303467,-1.330780029296875,5.888184547424316,3,1
2020-11-14 22:18:52.649282,5.45176362991333,-9.97215461730957,3.4309957027435303,1.5236048698425293,0.6427114605903625,-1.7362048625946045,1.5199859142303467,-1.330780029296875,5.888184547424316,2,1
2020-11-14 22:18:52.770840,5.45176362991333,-9.97215461730957,3.4309957027435303,1.4002101421356201,-0.6327751278877258,-0.7594313621520996,1.5199859142303467,-1.330780029296875,5.888184547424316,2,1
2020-11-14 22:18:52.780103,5.45176362991333,-9.97215461730957,3.4309957027435303,1.4002101421356201,-0.6327751278877258,-0.7594313621520996,-2.7125957012176514,-1.900336742401123,1.1316114664077759,2,1
2020-11-14 22:18:52.788237,3.035940408706665,-9.845257759094238,1.1851660013198853,1.4002101421356201,-0.6327751278877258,-0.7594313621520996,-2.7125957012176514,-1.900336742401123,1.1316114664077759,2,1
2020-11-14 22:18:52.954055,3.035940408706665,-9.845257759094238,1.1851660013198853,-0.3499188721179962,0.047728732228279114,0.7506275773048401,-2.7125957012176514,-1.900336742401123,1.1316114664077759,2,1
2020-11-14 22:18:52.963326,3.035940408706665,-9.845257759094238,1.1851660013198853,-0.3499188721179962,0.047728732228279114,0.7506275773048401,-1.3920097351074219,-0.3960423469543457,-0.05791449546813965,2,1
2020-11-14 22:18:52.965852,4.276175022125244,-8.387145042419434,0.371112585067749,-0.3499188721179962,0.047728732228279114,0.7506275773048401,-1.3920097351074219,-0.3960423469543457,-0.05791449546813965,2,1
2020-11-14 22:18:53.072843,4.276175022125244,-8.387145042419434,0.371112585067749,-0.3499188721179962,0.047728732228279114,0.7506275773048401,-1.3920097351074219,-0.3960423469543457,-0.05791449546813965,3,1
2020-11-14 22:18:53.133187,4.276175022125244,-8.387145042419434,0.371112585067749,-0.4152814745903015,-0.06467047333717346,0.5056706070899963,-1.3920097351074219,-0.3960423469543457,-0.05791449546813965,3,1
2020-11-14 22:18:53.140865,4.276175022125244,-8.387145042419434,0.371112585067749,-0.4152814745903015,-0.06467047333717346,0.5056706070899963,-1.2339987754821777,-0.22471237182617188,-0.7807916402816772,3,1
2020-11-14 22:18:53.143953,3.3304362297058105,-8.904308319091797,-0.8068706393241882,-0.4152814745903015,-0.06467047333717346,0.5056706070899963,-1.2339987754821777,-0.22471237182617188,-0.7807916402816772,3,1
2020-11-14 22:18:53.316107,3.3304362297058105,-8.904308319091797,-0.8068706393241882,-0.3645796477794647,-0.3914833664894104,0.9925302267074585,-1.2339987754821777,-0.22471237182617188,-0.7807916402816772,3,1
2020-11-14 22:18:53.322869,3.3304362297058105,-8.904308319091797,-0.8068706393241882,-0.3645796477794647,-0.3914833664894104,0.9925302267074585,-1.2339987754821777,-0.22471237182617188,-0.7807916402816772,9,1
2020-11-14 22:18:53.325738,3.3304362297058105,-8.904308319091797,-0.8068706393241882,-0.3645796477794647,-0.3914833664894104,0.9925302267074585,-0.15938711166381836,-0.1462697982788086,0.46744269132614136,9,1
2020-11-14 22:18:53.328317,3.1724140644073486,-9.313729286193848,-0.5458946824073792,-0.3645796477794647,-0.3914833664894104,0.9925302267074585,-0.15938711166381836,-0.1462697982788086,0.46744269132614136,9,1
2020-11-14 22:18:53.371204,3.1724140644073486,-9.313729286193848,-0.5458946824073792,-0.3645796477794647,-0.3914833664894104,0.9925302267074585,-0.15938711166381836,-0.1462697982788086,0.46744269132614136,9,1
2020-11-14 22:18:53.494823,3.1724140644073486,-9.313729286193848,-0.5458946824073792,-0.5460066795349121,-0.42385920882225037,0.8514202833175659,-0.15938711166381836,-0.1462697982788086,0.46744269132614136,9,1
2020-11-14 22:18:53.501653,3.1724140644073486,-9.313729286193848,-0.5458946824073792,-0.5460066795349121,-0.42385920882225037,0.8514202833175659,4.185203552246094,0.475067138671875,1.1770222187042236,9,1
2020-11-14 22:18:53.505469,5.6576714515686035,-9.019232749938965,-0.7877163887023926,-0.5460066795349121,-0.42385920882225037,0.8514202833175659,4.185203552246094,0.475067138671875,1.1770222187042236,9,1
2020-11-14 22:18:53.676615,5.6576714515686035,-9.019232749938965,-0.7877163887023926,0.7923991084098816,-0.28274935483932495,-0.81929612159729,4.185203552246094,0.475067138671875,1.1770222187042236,9,1
2020-11-14 22:18:53.684036,5.6576714515686035,-9.019232749938965,-0.7877163887023926,0.7923991084098816,-0.28274935483932495,-0.81929612159729,5.363212585449219,1.2059459686279297,2.420905113220215,9,1
2020-11-14 22:18:53.689778,6.560312747955322,-8.346442222595215,0.5530774593353271,0.7923991084098816,-0.28274935483932495,-0.81929612159729,5.363212585449219,1.2059459686279297,2.420905113220215,9,1
2020-11-14 22:18:53.810387,6.560312747955322,-8.346442222595215,0.5530774593353271,0.7923991084098816,-0.28274935483932495,-0.81929612159729,5.363212585449219,1.2059459686279297,2.420905113220215,10,1
2020-11-14 22:18:53.852249,6.560312747955322,-8.346442222595215,0.5530774593353271,0.9475588798522949,-1.3542070388793945,-2.0715699195861816,5.363212585449219,1.2059459686279297,2.420905113220215,10,1
2020-11-14 22:18:53.858336,6.560312747955322,-8.346442222595215,0.5530774593353271,0.9475588798522949,-1.3542070388793945,-2.0715699195861816,5.363212585449219,1.2059459686279297,2.420905113220215,9,1
2020-11-14 22:18:53.861066,6.560312747955322,-8.346442222595215,0.5530774593353271,0.9475588798522949,-1.3542070388793945,-2.0715699195861816,3.4735567569732666,-1.632049560546875,2.8085224628448486,9,1
2020-11-14 22:18:53.863402,6.938608169555664,-10.7838134765625,2.169213056564331,0.9475588798522949,-1.3542070388793945,-2.0715699195861816,3.4735567569732666,-1.632049560546875,2.8085224628448486,9,1
2020-11-14 22:18:54.033382,6.938608169555664,-10.7838134765625,2.169213056564331,0.6702260971069336,-0.7201288938522339,-2.117384672164917,3.4735567569732666,-1.632049560546875,2.8085224628448486,9,1
2020-11-14 22:18:54.041688,6.938608169555664,-10.7838134765625,2.169213056564331,0.6702260971069336,-0.7201288938522339,-2.117384672164917,3.4735567569732666,-1.632049560546875,2.8085224628448486,5,1
2020-11-14 22:18:54.044761,6.938608169555664,-10.7838134765625,2.169213056564331,0.6702260971069336,-0.7201288938522339,-2.117384672164917,-5.308353424072266,-4.35225772857666,1.1359699964523315,5,1
2020-11-14 22:18:54.046798,1.4748733043670654,-11.406325340270996,0.50519198179245,0.6702260971069336,-0.7201288938522339,-2.117384672164917,-5.308353424072266,-4.35225772857666,1.1359699964523315,5,1
2020-11-14 22:18:54.090218,1.4748733043670654,-11.406325340270996,0.50519198179245,0.6702260971069336,-0.7201288938522339,-2.117384672164917,-5.308353424072266,-4.35225772857666,1.1359699964523315,5,1
2020-11-14 22:18:54.213057,1.4748733043670654,-11.406325340270996,0.50519198179245,0.07524332404136658,-0.3615509867668152,0.918615460395813,-5.308353424072266,-4.35225772857666,1.1359699964523315,5,1
2020-11-14 22:18:54.224371,1.4748733043670654,-11.406325340270996,0.50519198179245,0.07524332404136658,-0.3615509867668152,0.918615460395813,-6.058744430541992,-4.274752140045166,0.34505149722099304,5,1
2020-11-14 22:18:54.229096,1.4269877672195435,-10.565935134887695,-0.39984390139579773,0.07524332404136658,-0.3615509867668152,0.918615460395813,-6.058744430541992,-4.274752140045166,0.34505149722099304,5,1
2020-11-14 22:18:54.272269,1.4269877672195435,-10.565935134887695,-0.39984390139579773,0.07524332404136658,-0.3615509867668152,0.918615460395813,-6.058744430541992,-4.274752140045166,0.34505149722099304,6,1
2020-11-14 22:18:54.333350,1.4269877672195435,-10.565935134887695,-0.39984390139579773,0.07524332404136658,-0.3615509867668152,0.918615460395813,-6.058744430541992,-4.274752140045166,0.34505149722099304,5,1
2020-11-14 22:18:54.394347,1.4269877672195435,-10.565935134887695,-0.39984390139579773,-1.475132703781128,1.1289602518081665,3.0731372833251953,-6.058744430541992,-4.274752140045166,0.34505149722099304,5,1
2020-11-14 22:18:54.402887,1.4269877672195435,-10.565935134887695,-0.39984390139579773,-1.475132703781128,1.1289602518081665,3.0731372833251953,0.44945335388183594,-2.720783233642578,3.6483726501464844,5,1
2020-11-14 22:18:54.405828,5.291347503662109,-11.128589630126953,2.2218871116638184,-1.475132703781128,1.1289602518081665,3.0731372833251953,0.44945335388183594,-2.720783233642578,3.6483726501464844,5,1
2020-11-14 22:18:54.514033,5.291347503662109,-11.128589630126953,2.2218871116638184,-1.475132703781128,1.1289602518081665,3.0731372833251953,0.44945335388183594,-2.720783233642578,3.6483726501464844,1,1
2020-11-14 22:18:54.575667,5.291347503662109,-11.128589630126953,2.2218871116638184,-0.6425232887268066,0.41485872864723206,0.41465166211128235,0.44945335388183594,-2.720783233642578,3.6483726501464844,1,1
2020-11-14 22:18:54.586007,5.291347503662109,-11.128589630126953,2.2218871116638184,-0.6425232887268066,0.41485872864723206,0.41465166211128235,10.038424491882324,3.4052414894104004,3.646207332611084,1,1
2020-11-14 22:18:54.590436,11.755888938903809,-6.043149471282959,1.659232497215271,-0.6425232887268066,0.41485872864723206,0.41465166211128235,10.038424491882324,3.4052414894104004,3.646207332611084,1,1
2020-11-14 22:18:54.754740,11.755888938903809,-6.043149471282959,1.659232497215271,0.579207181930542,0.752667248249054,-3.0990452766418457,10.038424491882324,3.4052414894104004,3.646207332611084,1,1
2020-11-14 22:18:54.763796,11.755888938903809,-6.043149471282959,1.659232497215271,0.579207181930542,0.752667248249054,-3.0990452766418457,10.038424491882324,3.4052414894104004,3.646207332611084,0,1
2020-11-14 22:18:54.766890,11.755888938903809,-6.043149471282959,1.659232497215271,0.579207181930542,0.752667248249054,-3.0990452766418457,6.438020706176758,-0.9032993316650391,1.4664576053619385,0,1
2020-11-14 22:18:54.769845,10.659311294555664,-9.634561538696289,0.011971374042332172,0.579207181930542,0.752667248249054,-3.0990452766418457,6.438020706176758,-0.9032993316650391,1.4664576053619385,0,1
2020-11-14 22:18:54.935334,10.659311294555664,-9.634561538696289,0.011971374042332172,1.5455960035324097,3.127711296081543,-3.789323091506958,6.438020706176758,-0.9032993316650391,1.4664576053619385,0,1
2020-11-14 22:18:54.942941,10.659311294555664,-9.634561538696289,0.011971374042332172,1.5455960035324097,3.127711296081543,-3.789323091506958,4.907090187072754,-6.110657691955566,1.9709268808364868,0,1
2020-11-14 22:18:54.946649,13.47497844696045,-10.637763023376465,3.476486921310425,1.5455960035324097,3.127711296081543,-3.789323091506958,4.907090187072754,-6.110657691955566,1.9709268808364868,0,1
2020-11-14 22:18:54.993824,13.47497844696045,-10.637763023376465,3.476486921310425,1.5455960035324097,3.127711296081543,-3.789323091506958,4.907090187072754,-6.110657691955566,1.9709268808364868,9,1
2020-11-14 22:18:55.052933,13.47497844696045,-10.637763023376465,3.476486921310425,1.5455960035324097,3.127711296081543,-3.789323091506958,4.907090187072754,-6.110657691955566,1.9709268808364868,15,1
2020-11-14 22:18:55.115395,13.47497844696045,-10.637763023376465,3.476486921310425,2.2138826847076416,3.8094370365142822,-1.6390773057937622,4.907090187072754,-6.110657691955566,1.9709268808364868,15,1
2020-11-14 22:18:55.122807,13.47497844696045,-10.637763023376465,3.476486921310425,2.2138826847076416,3.8094370365142822,-1.6390773057937622,-0.8719816207885742,-3.613049030303955,-1.3471298217773438,15,1
2020-11-14 22:18:55.125919,4.9106574058532715,-2.3056867122650146,6.464541912078857,2.2138826847076416,3.8094370365142822,-1.6390773057937622,-0.8719816207885742,-3.613049030303955,-1.3471298217773438,15,1
2020-11-14 22:18:55.233467,4.9106574058532715,-2.3056867122650146,6.464541912078857,2.2138826847076416,3.8094370365142822,-1.6390773057937622,-0.8719816207885742,-3.613049030303955,-1.3471298217773438,36,1
2020-11-14 22:18:55.295918,4.9106574058532715,-2.3056867122650146,6.464541912078857,1.485120415687561,1.3293240070343018,-0.12229888886213303,-0.8719816207885742,-3.613049030303955,-1.3471298217773438,36,1
2020-11-14 22:18:55.304015,4.9106574058532715,-2.3056867122650146,6.464541912078857,1.485120415687561,1.3293240070343018,-0.12229888886213303,-0.8719816207885742,-3.613049030303955,-1.3471298217773438,32,1
2020-11-14 22:18:55.307051,4.9106574058532715,-2.3056867122650146,6.464541912078857,1.485120415687561,1.3293240070343018,-0.12229888886213303,-0.9329179525375366,-2.6045491695404053,-3.2184977531433105,32,1
2020-11-14 22:18:55.309452,0.9720755815505981,2.4277946949005127,4.980091571807861,1.485120415687561,1.3293240070343018,-0.12229888886213303,-0.9329179525375366,-2.6045491695404053,-3.2184977531433105,32,1
2020-11-14 22:18:55.476428,0.9720755815505981,2.4277946949005127,4.980091571807861,0.12533427774906158,0.7361738681793213,-0.14795522391796112,-0.9329179525375366,-2.6045491695404053,-3.2184977531433105,32,1
2020-11-14 22:18:55.491023,0.9720755815505981,2.4277946949005127,4.980091571807861,0.12533427774906158,0.7361738681793213,-0.14795522391796112,-0.9329179525375366,-2.6045491695404053,-3.2184977531433105,25,1
2020-11-14 22:18:55.501284,0.9720755815505981,2.4277946949005127,4.980091571807861,0.12533427774906158,0.7361738681793213,-0.14795522391796112,-0.06255877017974854,-0.2942214012145996,-1.7604503631591797,25,1
2020-11-14 22:18:55.503947,0.5626545548439026,6.083852291107178,5.662459850311279,0.12533427774906158,0.7361738681793213,-0.14795522391796112,-0.06255877017974854,-0.2942214012145996,-1.7604503631591797,25,1
2020-11-14 22:18:55.632385,0.5626545548439026,6.083852291107178,5.662459850311279,0.12533427774906158,0.7361738681793213,-0.14795522391796112,-0.06255877017974854,-0.2942214012145996,-1.7604503631591797,32,1
2020-11-14 22:18:55.637941,0.5626545548439026,6.083852291107178,5.662459850311279,0.12533427774906158,0.7361738681793213,-0.14795522391796112,-0.06255877017974854,-0.2942214012145996,-1.7604503631591797,32,1
2020-11-14 22:18:55.651034,0.5626545548439026,6.083852291107178,5.662459850311279,0.3318067193031311,-0.01580125093460083,0.12143635004758835,-0.06255877017974854,-0.2942214012145996,-1.7604503631591797,32,1
2020-11-14 22:18:55.655705,0.5626545548439026,6.083852291107178,5.662459850311279,0.3318067193031311,-0.01580125093460083,0.12143635004758835,0.9662627577781677,0.9719209671020508,-1.020310401916504,32,1
2020-11-14 22:18:55.658662,1.4509304761886597,7.630553722381592,6.162863254547119,0.3318067193031311,-0.01580125093460083,0.12143635004758835,0.9662627577781677,0.9719209671020508,-1.020310401916504,32,1
2020-11-14 22:18:55.788670,1.4509304761886597,7.630553722381592,6.162863254547119,0.3318067193031311,-0.01580125093460083,0.12143635004758835,0.9662627577781677,0.9719209671020508,-1.020310401916504,41,1
2020-11-14 22:18:55.832822,1.4509304761886597,7.630553722381592,6.162863254547119,-0.6327494978904724,0.2297665774822235,0.21795305609703064,0.9662627577781677,0.9719209671020508,-1.020310401916504,41,1
2020-11-14 22:18:55.836310,1.4509304761886597,7.630553722381592,6.162863254547119,-0.6327494978904724,0.2297665774822235,0.21795305609703064,1.3482311964035034,0.3040914535522461,0.932640552520752,41,1
2020-11-14 22:18:55.838438,1.6041641235351562,6.737489223480225,8.329682350158691,-0.6327494978904724,0.2297665774822235,0.21795305609703064,1.3482311964035034,0.3040914535522461,0.932640552520752,41,1
2020-11-14 22:18:55.967778,1.6041641235351562,6.737489223480225,8.329682350158691,-0.6327494978904724,0.2297665774822235,0.21795305609703064,1.3482311964035034,0.3040914535522461,0.932640552520752,57,1
2020-11-14 22:18:56.008553,1.6041641235351562,6.737489223480225,8.329682350158691,-0.9467342495918274,-0.7732741832733154,-0.39413392543792725,1.3482311964035034,0.3040914535522461,0.932640552520752,57,1
2020-11-14 22:18:56.014423,1.6041641235351562,6.737489223480225,8.329682350158691,-0.9467342495918274,-0.7732741832733154,-0.39413392543792725,1.692850112915039,-0.30158281326293945,-0.7438902854919434,57,1
2020-11-14 22:18:56.018332,1.6089526414871216,5.846818923950195,6.895511627197266,-0.9467342495918274,-0.7732741832733154,-0.39413392543792725,1.692850112915039,-0.30158281326293945,-0.7438902854919434,57,1
2020-11-14 22:18:56.030973,1.6089526414871216,5.846818923950195,6.895511627197266,-0.9467342495918274,-0.7732741832733154,-0.39413392543792725,1.692850112915039,-0.30158281326293945,-0.7438902854919434,57,1
2020-11-14 22:18:56.191040,1.6089526414871216,5.846818923950195,6.895511627197266,-0.3700774312019348,0.4136370122432709,1.280247688293457,1.692850112915039,-0.30158281326293945,-0.7438902854919434,57,1
2020-11-14 22:18:56.195642,1.6089526414871216,5.846818923950195,6.895511627197266,-0.3700774312019348,0.4136370122432709,1.280247688293457,-1.748095989227295,1.1365222930908203,-1.2062783241271973,57,1
2020-11-14 22:18:56.198695,-1.1779831647872925,6.222720146179199,7.158881664276123,-0.3700774312019348,0.4136370122432709,1.280247688293457,-1.748095989227295,1.1365222930908203,-1.2062783241271973,57,1
2020-11-14 22:18:56.210827,-1.1779831647872925,6.222720146179199,7.158881664276123,-0.3700774312019348,0.4136370122432709,1.280247688293457,-1.748095989227295,1.1365222930908203,-1.2062783241271973,62,1
2020-11-14 22:18:56.253946,-1.1779831647872925,6.222720146179199,7.158881664276123,-0.3700774312019348,0.4136370122432709,1.280247688293457,-1.748095989227295,1.1365222930908203,-1.2062783241271973,62,1
2020-11-14 22:18:56.368931,-1.1779831647872925,6.222720146179199,7.158881664276123,0.28415924310684204,0.8797271847724915,0.13487538695335388,-1.748095989227295,1.1365222930908203,-1.2062783241271973,62,1
2020-11-14 22:18:56.372309,-1.1779831647872925,6.222720146179199,7.158881664276123,0.28415924310684204,0.8797271847724915,0.13487538695335388,-0.3273090124130249,1.3325915336608887,0.1178436279296875,62,1
2020-11-14 22:18:56.373468,0.11492519080638885,5.863578796386719,8.80374813079834,0.28415924310684204,0.8797271847724915,0.13487538695335388,-0.3273090124130249,1.3325915336608887,0.1178436279296875,62,1
2020-11-14 22:18:56.508955,0.11492519080638885,5.863578796386719,8.80374813079834,0.28415924310684204,0.8797271847724915,0.13487538695335388,-0.3273090124130249,1.3325915336608887,0.1178436279296875,60,1
2020-11-14 22:18:56.555883,0.11492519080638885,5.863578796386719,8.80374813079834,0.0740216001868248,0.4136370122432709,0.20756834745407104,-0.3273090124130249,1.3325915336608887,0.1178436279296875,60,1
2020-11-14 22:18:56.567499,0.8643332123756409,4.886714935302734,8.3033447265625,0.0740216001868248,0.4136370122432709,0.20756834745407104,-0.3273090124130249,1.3325915336608887,0.1178436279296875,60,1
2020-11-14 22:18:56.581787,0.8643332123756409,4.886714935302734,8.3033447265625,0.0740216001868248,0.4136370122432709,0.20756834745407104,1.1700471639633179,-0.5683016777038574,0.15965652465820312,60,1
2020-11-14 22:18:56.584443,0.8643332123756409,4.886714935302734,8.3033447265625,0.0740216001868248,0.4136370122432709,0.20756834745407104,1.1700471639633179,-0.5683016777038574,0.15965652465820312,56,1
2020-11-14 22:18:56.728761,0.8643332123756409,4.886714935302734,8.3033447265625,0.3617391288280487,-1.681019902229309,0.2142878621816635,1.1700471639633179,-0.5683016777038574,0.15965652465820312,56,1
2020-11-14 22:18:56.731060,0.8643332123756409,4.886714935302734,8.3033447265625,0.3617391288280487,-1.681019902229309,0.2142878621816635,-0.8289004564285278,-0.26813220977783203,-0.281893253326416,56,1
2020-11-14 22:18:56.732455,-0.23224465548992157,5.727105140686035,7.4557719230651855,0.3617391288280487,-1.681019902229309,0.2142878621816635,-0.8289004564285278,-0.26813220977783203,-0.281893253326416,56,1
2020-11-14 22:18:56.751380,-0.23224465548992157,5.727105140686035,7.4557719230651855,0.3617391288280487,-1.681019902229309,0.2142878621816635,-0.8289004564285278,-0.26813220977783203,-0.281893253326416,39,1
2020-11-14 22:18:56.910146,-0.23224465548992157,5.727105140686035,7.4557719230651855,0.4490928649902344,1.321382761001587,0.21612045168876648,-0.8289004564285278,-0.26813220977783203,-0.281893253326416,39,1
2020-11-14 22:18:56.913054,-0.23224465548992157,5.727105140686035,7.4557719230651855,0.4490928649902344,1.321382761001587,0.21612045168876648,-0.8289004564285278,-0.26813220977783203,-0.281893253326416,26,1
2020-11-14 22:18:56.914529,-0.23224465548992157,5.727105140686035,7.4557719230651855,0.4490928649902344,1.321382761001587,0.21612045168876648,1.2025662660598755,0.2650279998779297,1.690415382385254,26,1
2020-11-14 22:18:56.917064,1.2019259929656982,5.849213123321533,9.75188159942627,0.4490928649902344,1.321382761001587,0.21612045168876648,1.2025662660598755,0.2650279998779297,1.690415382385254,26,1
2020-11-14 22:18:56.968852,1.2019259929656982,5.849213123321533,9.75188159942627,0.4490928649902344,1.321382761001587,0.21612045168876648,1.2025662660598755,0.2650279998779297,1.690415382385254,25,1
2020-11-14 22:18:57.089858,1.2019259929656982,5.849213123321533,9.75188159942627,0.006215553730726242,0.10942612588405609,-0.0734296664595604,1.2025662660598755,0.2650279998779297,1.690415382385254,25,1
2020-11-14 22:18:57.094852,1.2019259929656982,5.849213123321533,9.75188159942627,0.006215553730726242,0.10942612588405609,-0.0734296664595604,-0.22192156314849854,0.5816559791564941,-0.2390122413635254,25,1
2020-11-14 22:18:57.097109,-0.3830839693546295,6.306519985198975,7.721536159515381,0.006215553730726242,0.10942612588405609,-0.0734296664595604,-0.22192156314849854,0.5816559791564941,-0.2390122413635254,25,1
2020-11-14 22:18:57.149057,-0.3830839693546295,6.306519985198975,7.721536159515381,0.006215553730726242,0.10942612588405609,-0.0734296664595604,-0.22192156314849854,0.5816559791564941,-0.2390122413635254,20,1
2020-11-14 22:18:57.209317,-0.3830839693546295,6.306519985198975,7.721536159515381,0.006215553730726242,0.10942612588405609,-0.0734296664595604,-0.22192156314849854,0.5816559791564941,-0.2390122413635254,18,1
2020-11-14 22:18:57.271662,-0.3830839693546295,6.306519985198975,7.721536159515381,0.1845882087945938,0.061778634786605835,-0.0325016975402832,-0.22192156314849854,0.5816559791564941,-0.2390122413635254,18,1
2020-11-14 22:18:57.275051,-0.3830839693546295,6.306519985198975,7.721536159515381,0.1845882087945938,0.061778634786605835,-0.0325016975402832,0.01927545666694641,1.1219830513000488,-1.266444206237793,18,1
2020-11-14 22:18:57.276973,-0.1245022863149643,6.919454097747803,6.64171838760376,0.1845882087945938,0.061778634786605835,-0.0325016975402832,0.01927545666694641,1.1219830513000488,-1.266444206237793,18,1
2020-11-14 22:18:57.371450,-0.1245022863149643,6.919454097747803,6.64171838760376,0.1845882087945938,0.061778634786605835,-0.0325016975402832,0.01927545666694641,1.1219830513000488,-1.266444206237793,17,1
